File: CVA-0p1M-KBr.mpt
EC-Lab ASCII FILE
Nb header lines : 71

Cyclic Voltammetry Advanced

Run on channel : 2 (SN 53091)
User :
CE vs. WE compliance from -10 V to 10 V
Electrode connection : standard
Potential control : Ewe
Ewe ctrl range : min = -1.50 V, max = 1.50 V
Safety Limits :
	Do not start on E overload
Acquisition started on : 06/03/2024 19:37:21.883
Technique started on : 06/03/2024 19:37:26.934
Loaded Setting File :  C:\EC Lab Data(Uran)-- Hard drive\240603 KBr Titration (Cat) Replication\03b-CVA-30mM-KBr-pH4p4-Rep1.mps
Saved on :
	File : 04b-CVA-0p1M-KBr-pH5p0-Rep1_02_CVA_C02.mpr
	Directory : C:\EC Lab Data(Uran)-- Hard drive\240603 KBr Titration (Cat) Replication\
	Host : 10.16.90.189
Device : VSP (SN 1989)
Address : USB
EC-Lab for windows v11.52 (software)
Internet server v11.52 (firmware)
Command interpretor v11.50 (firmware)
Electrode material :
Initial state :
Electrolyte :
Comments :
Electrode surface area : 0.001 cm²
Characteristic mass : 0.001 g
Equivalent Weight : 0.000 g/eq.
Density : 0.000 g/cm3
Volume (V) : 0.001 cm³
Record Ece
Text export
   Mode : Standard
   Time format : Elapsed
Cycle Definition : Charge/Discharge alternance
Ei (V)              0.000
vs.                 Eoc
ti (h:m:s)          0:00:5.0000
dti (s)             0.0000
dE/dt               1.000
dE/dt unit          V/s
E1 (V)              -1.200
vs.                 Ref
t1 (h:m:s)          0:00:0.0000
dt1 (s)             0.0500
Step percent        50
N                   10
E range min (V)     -1.500
E range max (V)     1.500
I Range             1 mA
I Range min         Unset
I Range max         Unset
I Range init        Unset
Bandwidth           5
E2 (V)              0.600
vs.                 Ref
t2 (h:m:s)          0:00:0.0000
dt2 (s)             0.0500
nc cycles           2
nr                  1
Reverse Scan        1
Ef (V)              0.000
vs.                 Eoc
tf (h:m:s)          0:00:0.0000
dtf (s)             0.1000

mode	ox/red	error	control changes	Ns changes	counter inc.	time/s	control/V	Ewe/V	<I>/mA	cycle number	(Q-Qo)/C	I Range	Ns	step time/s	<Ece>/V	Rcmp/Ohm	P/W	Ewe-Ece/V
2	1	0	1	0	0	5.051	0.428045	0.427763	3.37152e-05	1	0.0000000E+000	12	0	5.051	0.333357	64.175	1.44221e-08	0.0944056
2	0	0	1	0	0	5.0761	0.40301	0.402731	-0.00106228	1	-2.27993e-08	12	0	5.0761	0.333689	64.175	-4.27814e-07	0.0690415
2	0	0	1	0	0	5.1021	0.377006	0.376744	-0.0011466	1	-5.16311e-08	12	0	5.1021	0.333757	64.175	-4.31976e-07	0.0429864
2	0	0	1	0	0	5.1281	0.35101	0.35072	-0.00137305	1	-8.42361e-08	12	0	5.1281	0.333872	64.175	-4.81557e-07	0.0168484
2	0	0	1	0	0	5.1541	0.324995	0.324694	-0.00168612	1	-1.23085e-07	12	0	5.1541	0.333885	64.175	-5.47473e-07	-0.00919065
2	0	0	1	0	0	5.1801	0.299001	0.298739	-0.00230536	1	-1.73669e-07	12	0	5.1801	0.334092	64.175	-6.88701e-07	-0.0353527
2	0	0	1	0	0	5.2061	0.272988	0.272703	-0.00374129	1	-2.50354e-07	12	0	5.2061	0.334455	64.175	-1.02026e-06	-0.0617517
2	0	0	1	0	0	5.2321	0.247004	0.246743	-0.00666531	1	-3.8121e-07	12	0	5.2321	0.335173	64.175	-1.64462e-06	-0.0884296
2	0	0	1	0	0	5.2581	0.220993	0.220703	-0.011921	1	-6.17253e-07	12	0	5.2581	0.336485	64.175	-2.631e-06	-0.115782
2	0	0	1	0	0	5.2841	0.194997	0.194724	-0.0191823	1	-1.01866e-06	12	0	5.2841	0.338389	64.175	-3.73527e-06	-0.143664
2	0	0	1	0	0	5.3101	0.169	0.168744	-0.026042	1	-1.61149e-06	12	0	5.3101	0.340299	64.175	-4.39445e-06	-0.171555
2	0	0	1	0	0	5.3361	0.142993	0.142702	-0.0296366	1	-2.34384e-06	12	0	5.3361	0.341533	64.175	-4.22919e-06	-0.198831
2	0	0	1	0	0	5.3621	0.117	0.116704	-0.0298402	1	-3.12251e-06	12	0	5.3621	0.34192	64.175	-3.48246e-06	-0.225216
2	0	0	1	0	0	5.3881	0.0909983	0.0907685	-0.0283951	1	-3.88109e-06	12	0	5.3881	0.341864	64.175	-2.57738e-06	-0.251096
2	0	0	1	0	0	5.4141	0.0649897	0.0647084	-0.0266828	1	-4.59637e-06	12	0	5.4141	0.341644	64.175	-1.7266e-06	-0.276936
2	0	0	1	0	0	5.4401	0.0389911	0.0386736	-0.0253104	1	-5.27069e-06	12	0	5.4401	0.341476	64.175	-9.78844e-07	-0.302802
2	0	0	1	0	0	5.4661	0.0130018	0.0127169	-0.0243332	1	-5.91483e-06	12	0	5.4661	0.341358	64.175	-3.09442e-07	-0.328641
2	0	0	1	0	0	5.4921	-0.0129955	-0.0133182	-0.0238539	1	-6.54075e-06	12	0	5.4921	0.341341	64.175	3.17692e-07	-0.354659
2	0	0	1	0	0	5.5181	-0.0390025	-0.0393466	-0.0237058	1	-7.1583e-06	12	0	5.5181	0.341384	64.175	9.32742e-07	-0.380731
2	0	0	1	0	0	5.5441	-0.0649997	-0.065336	-0.0239177	1	-7.77655e-06	12	0	5.5441	0.341513	64.175	1.56269e-06	-0.406849
2	0	0	1	0	0	5.5701	-0.0909947	-0.0913012	-0.0242902	1	-8.40203e-06	12	0	5.5701	0.341674	64.175	2.21772e-06	-0.432975
2	0	0	1	0	0	5.5961	-0.117009	-0.117318	-0.02485	1	-9.04036e-06	12	0	5.5961	0.341946	64.175	2.91535e-06	-0.459264
2	0	0	1	0	0	5.6221	-0.143006	-0.143327	-0.025484	1	-9.69467e-06	12	0	5.6221	0.342183	64.175	3.65253e-06	-0.485509
2	0	0	1	0	0	5.6481	-0.169	-0.169334	-0.0261591	1	-1.0366e-05	12	0	5.6481	0.342427	64.175	4.42961e-06	-0.511761
2	0	0	1	0	0	5.6741	-0.195012	-0.195328	-0.0267254	1	-1.10538e-05	12	0	5.6741	0.34268	64.175	5.22022e-06	-0.538008
2	0	0	1	0	0	5.7001	-0.220995	-0.221305	-0.0272441	1	-1.17553e-05	12	0	5.7001	0.342919	64.175	6.02926e-06	-0.564224
2	0	0	1	0	0	5.7261	-0.247003	-0.247295	-0.0275809	1	-1.24677e-05	12	0	5.7261	0.343128	64.175	6.8206e-06	-0.590423
2	0	0	1	0	0	5.7521	-0.273006	-0.273258	-0.0277861	1	-1.31871e-05	12	0	5.7521	0.343256	64.175	7.59278e-06	-0.616514
2	0	0	1	0	0	5.7781	-0.298995	-0.299277	-0.0278655	1	-1.39101e-05	12	0	5.7781	0.343397	64.175	8.33948e-06	-0.642674
2	0	0	1	0	0	5.8041	-0.324992	-0.325256	-0.0278697	1	-1.46343e-05	12	0	5.8041	0.343524	64.175	9.06479e-06	-0.66878
2	0	0	1	0	0	5.8301	-0.351006	-0.351323	-0.0278105	1	-1.53578e-05	12	0	5.8301	0.343545	64.175	9.77045e-06	-0.694868
2	0	0	1	0	0	5.8561	-0.377005	-0.377342	-0.0278082	1	-1.60805e-05	12	0	5.8561	0.343699	64.175	1.04932e-05	-0.721041
2	0	0	1	0	0	5.8821	-0.402994	-0.403303	-0.0277723	1	-1.68021e-05	12	0	5.8821	0.343768	64.175	1.12006e-05	-0.747071
2	0	0	1	0	0	5.9081	-0.428999	-0.429298	-0.0278043	1	-1.75234e-05	12	0	5.9081	0.34385	64.175	1.19363e-05	-0.773148
2	0	0	1	0	0	5.9341	-0.455006	-0.455311	-0.0278204	1	-1.82452e-05	12	0	5.9341	0.343922	64.175	1.26669e-05	-0.799232
2	0	0	1	0	0	5.9601	-0.481004	-0.481263	-0.0279986	1	-1.89701e-05	12	0	5.9601	0.344035	64.175	1.34747e-05	-0.825297
2	0	0	1	0	0	5.9861	-0.507001	-0.507331	-0.0282263	1	-1.97e-05	12	0	5.9861	0.344184	64.175	1.43201e-05	-0.851515
2	0	0	1	0	0	6.0121	-0.533005	-0.533327	-0.0285964	1	-2.04383e-05	12	0	6.0121	0.344348	64.175	1.52512e-05	-0.877675
2	0	0	1	0	0	6.0381	-0.559001	-0.559301	-0.0291068	1	-2.11882e-05	12	0	6.0381	0.34452	64.175	1.62794e-05	-0.903821
2	0	0	1	0	0	6.0641	-0.585011	-0.585306	-0.0297297	1	-2.19529e-05	12	0	6.0641	0.344745	64.175	1.7401e-05	-0.930051
2	0	0	1	0	0	6.0901	-0.611001	-0.611298	-0.0303983	1	-2.27342e-05	12	0	6.0901	0.345022	64.175	1.85824e-05	-0.95632
2	0	0	1	0	0	6.1161	-0.637	-0.637311	-0.0311847	1	-2.35347e-05	12	0	6.1161	0.345275	64.175	1.98744e-05	-0.982586
2	0	0	1	0	0	6.1421	-0.663007	-0.66331	-0.0319744	1	-2.43554e-05	12	0	6.1421	0.345639	64.175	2.12089e-05	-1.00895
2	0	0	1	0	0	6.1681	-0.689009	-0.68931	-0.0327973	1	-2.51976e-05	12	0	6.1681	0.345936	64.175	2.26075e-05	-1.03525
2	0	0	1	0	0	6.1941	-0.715002	-0.715264	-0.0336571	1	-2.60616e-05	12	0	6.1941	0.346261	64.175	2.40737e-05	-1.06153
2	0	0	1	0	0	6.2201	-0.741011	-0.741337	-0.0345562	1	-2.6948e-05	12	0	6.2201	0.346597	64.175	2.56178e-05	-1.08793
2	0	0	1	0	0	6.2461	-0.767002	-0.767291	-0.0354468	1	-2.7858e-05	12	0	6.2461	0.346982	64.175	2.7198e-05	-1.11427
2	0	0	1	0	0	6.2721	-0.793002	-0.793271	-0.036466	1	-2.87929e-05	12	0	6.2721	0.347314	64.175	2.89275e-05	-1.14059
2	0	0	1	0	0	6.2981	-0.819009	-0.819318	-0.0376398	1	-2.97554e-05	12	0	6.2981	0.347754	64.175	3.0839e-05	-1.16707
2	0	0	1	0	0	6.3241	-0.845007	-0.845351	-0.0390423	1	-3.07506e-05	12	0	6.3241	0.348197	64.175	3.30045e-05	-1.19355
2	0	0	1	0	0	6.3501	-0.871003	-0.87136	-0.0410574	1	-3.17901e-05	12	0	6.3501	0.348843	64.175	3.57758e-05	-1.2202
2	0	0	1	0	0	6.3761	-0.897002	-0.897336	-0.0447074	1	-3.29002e-05	12	0	6.3761	0.349853	64.175	4.01176e-05	-1.24719
2	0	0	1	0	0	6.4021	-0.923004	-0.923362	-0.0516253	1	-3.41416e-05	12	0	6.4021	0.351702	64.175	4.76688e-05	-1.27506
2	0	0	1	0	0	6.4281	-0.949006	-0.94935	-0.0655823	1	-3.56454e-05	12	0	6.4281	0.355272	64.175	6.22605e-05	-1.30462
2	0	0	1	0	0	6.4541	-0.975009	-0.975326	-0.091651	1	-3.76605e-05	12	0	6.4541	0.361912	64.175	8.93896e-05	-1.33724
2	0	0	1	0	0	6.4801	-1.001	-1.00128	-0.130061	1	-4.05262e-05	12	0	6.4801	0.371906	64.175	0.000130227	-1.37319
2	0	0	1	0	0	6.5061	-1.027	-1.02729	-0.170699	1	-4.44519e-05	12	0	6.5061	0.383003	64.175	0.000175358	-1.4103
2	0	0	1	0	0	6.5321	-1.05299	-1.05327	-0.200604	1	-4.93111e-05	12	0	6.5321	0.392204	64.175	0.00021129	-1.44547
2	0	0	1	0	0	6.5581	-1.079	-1.07929	-0.218137	1	-5.47802e-05	12	0	6.5581	0.398525	64.175	0.000235433	-1.47782
2	0	0	1	0	0	6.5841	-1.105	-1.10532	-0.227515	1	-6.0586e-05	12	0	6.5841	0.402835	64.175	0.000251477	-1.50816
2	0	0	1	0	0	6.6101	-1.131	-1.13125	-0.232516	1	-6.65716e-05	12	0	6.6101	0.405872	64.175	0.000263033	-1.53712
2	0	0	1	0	0	6.6361	-1.15701	-1.15733	-0.235386	1	-7.26569e-05	12	0	6.6361	0.408308	64.175	0.000272419	-1.56564
2	0	0	1	0	0	6.6621	-1.183	-1.1833	-0.237154	1	-7.8801e-05	12	0	6.6621	0.410168	64.175	0.000280626	-1.59347
2	0	0	1	0	0	6.6829	-1.19666	-1.19695	-0.23156	1	-8.37267e-05	12	0	6.6829	0.410155	64.175	0.000277165	-1.6071
2	0	0	1	0	0	6.7089	-1.17067	-1.17096	-0.219404	1	-8.95606e-05	12	0	6.7089	0.408341	64.175	0.000256913	-1.5793
2	0	0	1	0	0	6.7349	-1.14468	-1.14501	-0.213737	1	-9.51853e-05	12	0	6.7349	0.407834	64.175	0.000244731	-1.55285
2	0	0	1	0	0	6.7609	-1.11866	-1.11895	-0.209122	1	-0.000100684	12	0	6.7609	0.407411	64.175	0.000233998	-1.52636
2	0	0	1	0	0	6.7869	-1.09268	-1.09299	-0.202438	1	-0.000106044	12	0	6.7869	0.406541	64.175	0.000221262	-1.49953
2	0	0	1	0	0	6.8129	-1.06667	-1.06702	-0.188731	1	-0.000111151	12	0	6.8129	0.403902	64.175	0.000201381	-1.47093
2	0	0	1	0	0	6.8389	-1.04067	-1.041	-0.160944	1	-0.000115731	12	0	6.8389	0.397741	64.175	0.000167543	-1.43874
2	0	0	1	0	0	6.8649	-1.01467	-1.01501	-0.116063	1	-0.000119359	12	0	6.8649	0.387066	64.175	0.000117805	-1.40208
2	0	0	1	0	0	6.8909	-0.988666	-0.989012	-0.0660599	1	-0.00012171	12	0	6.8909	0.37436	64.175	6.53341e-05	-1.36337
2	0	0	1	0	0	6.9169	-0.962672	-0.96304	-0.0301397	1	-0.000122915	12	0	6.9169	0.364223	64.175	2.90257e-05	-1.32726
2	0	0	1	0	0	6.9429	-0.936668	-0.93702	-0.0120309	1	-0.00012343	12	0	6.9429	0.358076	64.175	1.12732e-05	-1.2951
2	0	0	1	0	0	6.9689	-0.910666	-0.910996	-0.00474166	1	-0.000123633	12	0	6.9689	0.354707	64.175	4.31963e-06	-1.2657
2	0	0	1	0	0	6.9949	-0.884663	-0.885026	-0.00203507	1	-0.000123716	12	0	6.9949	0.352718	64.175	1.80109e-06	-1.23774
2	0	0	1	0	0	7.0209	-0.858668	-0.859027	-0.00109622	1	-0.000123756	12	0	7.0209	0.351353	64.175	9.41686e-07	-1.21038
2	0	0	1	0	0	7.0469	-0.832663	-0.832998	-0.000738257	1	-0.00012378	12	0	7.0469	0.350395	64.175	6.14966e-07	-1.18339
2	0	0	1	0	0	7.0729	-0.806659	-0.806967	-0.000531254	1	-0.000123797	12	0	7.0729	0.349599	64.175	4.28705e-07	-1.15657
2	0	0	1	0	0	7.0989	-0.780665	-0.780939	-0.000286953	1	-0.000123807	12	0	7.0989	0.348927	64.175	2.24093e-07	-1.12987
2	0	0	1	0	0	7.1249	-0.754671	-0.754975	6.07616e-05	1	-0.000123811	12	0	0.000000000000000E+000	0.348256	64.175	-4.58735e-08	-1.10323
2	0	0	1	0	0	7.1509	-0.728679	-0.729024	0.000466635	1	-0.000123804	12	0	0.026	0.347709	64.175	-3.40188e-07	-1.07673
2	1	0	1	0	0	7.1769	-0.702664	-0.702971	0.000935439	1	-0.000123787	12	0	0.052	0.347139	64.175	-6.57587e-07	-1.05011
2	1	0	1	0	0	7.2029	-0.676679	-0.676948	0.00139912	1	-0.000123757	12	0	0.078	0.346558	64.175	-9.47129e-07	-1.02351
2	1	0	1	0	0	7.2289	-0.650658	-0.650973	0.00192856	1	-0.000123713	12	0	0.104	0.346066	64.175	-1.25544e-06	-0.99704
2	1	0	1	0	0	7.2549	-0.624673	-0.625023	0.0024161	1	-0.000123657	12	0	0.13	0.345658	64.175	-1.51012e-06	-0.970681
2	1	0	1	0	0	7.2809	-0.598658	-0.598965	0.00293263	1	-0.000123588	12	0	0.156	0.345149	64.175	-1.75654e-06	-0.944114
2	1	0	1	0	0	7.3069	-0.572664	-0.572954	0.00335707	1	-0.000123507	12	0	0.182	0.344766	64.175	-1.92344e-06	-0.91772
2	1	0	1	0	0	7.3329	-0.54667	-0.546981	0.00375887	1	-0.000123414	12	0	0.208	0.344438	64.175	-2.05603e-06	-0.891419
2	1	0	1	0	0	7.3589	-0.520659	-0.520953	0.00417358	1	-0.000123312	12	0	0.234	0.344016	64.175	-2.17424e-06	-0.864969
2	1	0	1	0	0	7.3849	-0.494664	-0.494983	0.00450928	1	-0.000123199	12	0	0.26	0.3437	64.175	-2.23202e-06	-0.838683
2	1	0	1	0	0	7.4109	-0.468667	-0.468969	0.00488209	1	-0.000123078	12	0	0.286	0.343418	64.175	-2.28955e-06	-0.812386
2	1	0	1	0	0	7.4369	-0.442667	-0.442987	0.00517554	1	-0.000122948	12	0	0.312	0.343072	64.175	-2.2927e-06	-0.786059
2	1	0	1	0	0	7.4629	-0.416662	-0.417055	0.00554429	1	-0.000122809	12	0	0.338	0.342817	64.175	-2.31228e-06	-0.759872
2	1	0	1	0	0	7.4889	-0.390658	-0.390963	0.00576915	1	-0.000122663	12	0	0.364	0.342564	64.175	-2.25552e-06	-0.733528
2	1	0	1	0	0	7.5149	-0.364666	-0.364979	0.00606878	1	-0.000122509	12	0	0.39	0.342236	64.175	-2.21498e-06	-0.707215
2	1	0	1	0	0	7.5409	-0.338668	-0.338949	0.0063799	1	-0.000122347	12	0	0.416	0.342078	64.175	-2.16246e-06	-0.681026
2	1	0	1	0	0	7.5669	-0.312674	-0.312972	0.00667989	1	-0.000122177	12	0	0.442	0.341812	64.175	-2.09062e-06	-0.654784
2	1	0	1	0	0	7.5929	-0.286671	-0.286929	0.00697192	1	-0.000122001	12	0	0.468	0.341554	64.175	-2.00045e-06	-0.628483
2	1	0	1	0	0	7.6189	-0.260669	-0.260992	0.00721905	1	-0.000121817	12	0	0.494	0.341311	64.175	-1.88411e-06	-0.602303
2	1	0	1	0	0	7.6449	-0.234655	-0.235007	0.00746582	1	-0.000121626	12	0	0.52	0.341175	64.175	-1.75452e-06	-0.576182
2	1	0	1	0	0	7.6709	-0.208662	-0.208959	0.00773363	1	-0.000121429	12	0	0.546	0.340903	64.175	-1.61601e-06	-0.549862
2	1	0	1	0	0	7.6969	-0.182662	-0.18296	0.00793816	1	-0.000121225	12	0	0.572	0.340727	64.175	-1.45237e-06	-0.523687
2	1	0	1	0	0	7.7229	-0.156666	-0.156995	0.00816479	1	-0.000121016	12	0	0.598	0.340568	64.175	-1.28183e-06	-0.497563
2	1	0	1	0	0	7.7489	-0.130667	-0.130992	0.0083382	1	-0.000120802	12	0	0.624	0.340381	64.175	-1.09224e-06	-0.471373
2	1	0	1	0	0	7.7749	-0.104671	-0.104983	0.00855351	1	-0.000120583	12	0	0.65	0.340226	64.175	-8.97972e-07	-0.445209
2	1	0	1	0	0	7.8009	-0.0786712	-0.0789965	0.00877713	1	-0.000120358	12	0	0.676	0.340012	64.175	-6.93362e-07	-0.419009
2	1	0	1	0	0	7.8269	-0.0526728	-0.053005	0.0090559	1	-0.000120126	12	0	0.702	0.339842	64.175	-4.80008e-07	-0.392847
2	1	0	1	0	0	7.8529	-0.0266574	-0.0269976	0.00941334	1	-0.000119886	12	0	0.728	0.339668	64.175	-2.54137e-07	-0.366666
2	1	0	1	0	0	7.8789	-0.000668076	-0.00100162	0.00990972	1	-0.000119636	12	0	0.754	0.339418	64.175	-9.92573e-09	-0.34042
2	1	0	1	0	0	7.9049	0.0253405	0.02506	0.01053	1	-0.000119371	12	0	0.78	0.339121	64.175	2.63882e-07	-0.314061
2	1	0	1	0	0	7.9309	0.0513379	0.0510058	0.0114151	1	-0.000119087	12	0	0.806	0.338805	64.175	5.82238e-07	-0.287799
2	1	0	1	0	0	7.9569	0.0773393	0.0770403	0.0126002	1	-0.000118776	12	0	0.832	0.338379	64.175	9.70725e-07	-0.261338
2	1	0	1	0	0	7.9829	0.103334	0.103041	0.0142805	1	-0.000118428	12	0	0.858	0.337852	64.175	1.47148e-06	-0.23481
2	1	0	1	0	0	8.0089	0.12934	0.128979	0.0165193	1	-0.000118029	12	0	0.884	0.337162	64.175	2.13064e-06	-0.208183
2	1	0	1	0	0	8.0349	0.155338	0.155065	0.0193205	1	-0.000117565	12	0	0.91	0.336304	64.175	2.99593e-06	-0.181238
2	1	0	1	0	0	8.0609	0.181339	0.18103	0.0224566	1	-0.000117022	12	0	0.936	0.335359	64.175	4.06533e-06	-0.154328
2	1	0	1	0	0	8.0869	0.207331	0.207018	0.0255164	1	-0.000116399	12	0	0.962	0.334391	64.175	5.28234e-06	-0.127374
2	1	0	1	0	0	8.1129	0.233331	0.233054	0.0281866	1	-0.0001157	12	0	0.988	0.333502	64.175	6.569e-06	-0.100447
2	1	0	1	0	0	8.1389	0.259327	0.259044	0.0301981	1	-0.000114939	12	0	1.014	0.332769	64.175	7.82264e-06	-0.0737249
2	1	0	1	0	0	8.1649	0.285337	0.285043	0.0315071	1	-0.000114135	12	0	1.04	0.3321	64.175	8.98087e-06	-0.0470574
2	1	0	1	0	0	8.1909	0.311332	0.31104	0.0320994	1	-0.000113306	12	0	1.066	0.331713	64.175	9.98421e-06	-0.0206735
2	1	0	1	0	0	8.2169	0.337334	0.337032	0.0320904	1	-0.000112471	12	0	1.092	0.331429	64.175	1.08155e-05	0.00560269
2	1	0	1	0	0	8.2429	0.363332	0.363042	0.0316533	1	-0.000111642	12	0	1.118	0.331274	64.175	1.14915e-05	0.0317688
2	1	0	1	0	0	8.2689	0.389328	0.389019	0.0309603	1	-0.000110829	12	0	1.144	0.331333	64.175	1.20441e-05	0.0576858
2	1	0	1	0	0	8.2949	0.415339	0.415097	0.0301046	1	-0.000110035	12	0	1.17	0.33132	64.175	1.24963e-05	0.0837773
2	1	0	1	0	0	8.3209	0.441334	0.441113	0.0291922	1	-0.000109264	12	0	1.196	0.331411	64.175	1.28771e-05	0.109702
2	1	0	1	0	0	8.3469	0.467336	0.467025	0.0282965	1	-0.000108518	12	0	1.222	0.331472	64.175	1.32152e-05	0.135554
2	1	0	1	0	0	8.3729	0.493339	0.493105	0.0274565	1	-0.000107794	12	0	1.248	0.33158	64.175	1.35389e-05	0.161525
2	1	0	1	0	0	8.3989	0.519339	0.519065	0.0267386	1	-0.00010709	12	0	1.274	0.331641	64.175	1.38791e-05	0.187424
2	1	0	1	0	0	8.4249	0.545333	0.545054	0.0262053	1	-0.000106402	12	0	1.3	0.331728	64.175	1.42833e-05	0.213326
2	1	0	1	0	0	8.4509	0.571334	0.571071	0.0258494	1	-0.000105726	12	0	1.326	0.331657	64.175	1.47618e-05	0.239413
2	1	0	1	0	0	8.4769	0.597337	0.597099	0.0256567	1	-0.000105058	12	0	1.352	0.33171	64.175	1.53196e-05	0.265389
2	1	0	1	0	1	8.4973	0.582591	0.582332	0.0170321	1	-0.000104649	12	0	1.3724	0.333629	64.175	9.91835e-06	0.248703
2	1	0	1	0	1	8.5233	0.556596	0.556321	0.0139085	1	-0.000104251	12	0	1.3984	0.334478	64.175	7.7376e-06	0.221843
2	1	0	1	0	1	8.5493	0.530601	0.530357	0.0119456	1	-0.000103916	12	0	1.4244	0.334973	64.175	6.33545e-06	0.195384
2	1	0	1	0	1	8.5753	0.5046	0.50437	0.0105977	1	-0.000103623	12	0	1.4504	0.335416	64.175	5.34517e-06	0.168953
2	1	0	1	0	1	8.6013	0.478602	0.478345	0.00949183	1	-0.000103362	12	0	1.4764	0.335764	64.175	4.54037e-06	0.142581
2	1	0	1	0	1	8.6273	0.452595	0.452334	0.0084851	1	-0.000103128	12	0	1.5024	0.336072	64.175	3.8381e-06	0.116262
2	1	0	0	0	1	8.6518	0.428047	0.427906	0.00744762	2	-0.000102931	12	0	1.5269	0.336524	64.175	3.18688e-06	0.091382
2	1	0	1	0	1	8.6769	0.403	0.40274	0.0068305	2	-0.000102749	12	0	1.552	0.336563	64.175	2.75092e-06	0.0661771
2	1	0	1	0	1	8.7029	0.376995	0.376719	0.00606029	2	-0.000102582	12	0	1.578	0.336843	64.175	2.28303e-06	0.039876
2	1	0	1	0	1	8.7289	0.350993	0.350701	0.00532102	2	-0.000102434	12	0	1.604	0.337065	64.175	1.86609e-06	0.0136355
2	1	0	1	0	1	8.7549	0.325005	0.324751	0.00457468	2	-0.000102306	12	0	1.63	0.337313	64.175	1.48564e-06	-0.0125613
2	1	0	1	0	1	8.7809	0.299003	0.298672	0.00384832	2	-0.000102196	12	0	1.656	0.337561	64.175	1.14938e-06	-0.0388889
2	1	0	1	0	1	8.8069	0.273	0.272688	0.00301377	2	-0.000102106	12	0	1.682	0.337803	64.175	8.2182e-07	-0.0651153
2	1	0	1	0	1	8.8329	0.246999	0.246713	0.00210639	2	-0.00010204	12	0	1.708	0.33802	64.175	5.19674e-07	-0.0913064
2	1	0	1	0	1	8.8589	0.220997	0.220711	0.000940389	2	-0.000102	12	0	1.734	0.338389	64.175	2.07554e-07	-0.117678
2	1	0	1	0	1	8.8849	0.194994	0.194694	-0.000494132	2	-0.000101995	12	0	0.006	0.33876	64.175	-9.62046e-08	-0.144066
2	0	0	1	0	1	8.9109	0.168993	0.168712	-0.00218515	2	-0.00010203	12	0	0.032	0.339253	64.175	-3.68662e-07	-0.170541
2	0	0	1	0	1	8.9369	0.142996	0.142678	-0.00374854	2	-0.000102107	12	0	0.058	0.339747	64.175	-5.34833e-07	-0.197069
2	0	0	1	0	1	8.9629	0.117004	0.116751	-0.00525271	2	-0.000102224	12	0	0.084	0.340123	64.175	-6.13257e-07	-0.223373
2	0	0	1	0	1	8.9889	0.0909911	0.0907146	-0.00648606	2	-0.000102376	12	0	0.11	0.340584	64.175	-5.8838e-07	-0.24987
2	0	0	1	0	1	9.0149	0.0650076	0.0647041	-0.00769679	2	-0.00010256	12	0	0.136	0.34101	64.175	-4.98014e-07	-0.276306
2	0	0	1	0	1	9.0409	0.0390034	0.0387326	-0.00888824	2	-0.000102775	12	0	0.162	0.341359	64.175	-3.44265e-07	-0.302626
2	0	0	1	0	1	9.0669	0.0129937	0.0126914	-0.0101041	2	-0.000103021	12	0	0.188	0.341787	64.175	-1.28235e-07	-0.329096
2	0	0	1	0	1	9.0929	-0.0129941	-0.0133362	-0.0112496	2	-0.000103297	12	0	0.214	0.342155	64.175	1.50027e-07	-0.355491
2	0	0	1	0	1	9.1189	-0.0389973	-0.0392801	-0.0123148	2	-0.000103604	12	0	0.24	0.342519	64.175	4.83727e-07	-0.381799
2	0	0	1	0	1	9.1449	-0.0649948	-0.0653484	-0.0131686	2	-0.000103935	12	0	0.266	0.342853	64.175	8.6055e-07	-0.408202
2	0	0	1	0	1	9.1709	-0.0909973	-0.0913379	-0.0139507	2	-0.000104289	12	0	0.292	0.343141	64.175	1.27423e-06	-0.434479
2	0	0	1	0	1	9.1969	-0.11701	-0.117317	-0.0145344	2	-0.000104659	12	0	0.318	0.343395	64.175	1.70513e-06	-0.460711
2	0	0	1	0	1	9.2229	-0.142998	-0.143331	-0.0150299	2	-0.000105044	12	0	0.344	0.343626	64.175	2.15426e-06	-0.486957
2	0	0	1	0	1	9.2489	-0.168996	-0.169317	-0.015393	2	-0.000105439	12	0	0.37	0.343884	64.175	2.6063e-06	-0.513201
2	0	0	1	0	1	9.2749	-0.195012	-0.195287	-0.015717	2	-0.000105844	12	0	0.396	0.343996	64.175	3.06934e-06	-0.539284
2	0	0	1	0	1	9.3009	-0.221008	-0.221292	-0.0159369	2	-0.000106255	12	0	0.422	0.344144	64.175	3.52672e-06	-0.565436
2	0	0	1	0	1	9.3269	-0.247008	-0.247345	-0.0161773	2	-0.000106672	12	0	0.448	0.344299	64.175	4.00138e-06	-0.591644
2	0	0	1	0	1	9.3529	-0.273011	-0.273299	-0.0163729	2	-0.000107095	12	0	0.474	0.344427	64.175	4.47469e-06	-0.617726
2	0	0	1	0	1	9.3789	-0.299007	-0.299336	-0.0165979	2	-0.000107523	12	0	0.5	0.344548	64.175	4.96834e-06	-0.643883
2	0	0	1	0	1	9.4049	-0.325001	-0.32529	-0.0169113	2	-0.000107958	12	0	0.526	0.344664	64.175	5.50108e-06	-0.669954
2	0	0	1	0	1	9.4309	-0.351	-0.351302	-0.0171717	2	-0.0001084	12	0	0.552	0.34482	64.175	6.03246e-06	-0.696123
2	0	0	1	0	1	9.4569	-0.377007	-0.377313	-0.0175647	2	-0.000108852	12	0	0.578	0.344967	64.175	6.62737e-06	-0.722279
2	0	0	1	0	1	9.4829	-0.403006	-0.40329	-0.0179751	2	-0.000109313	12	0	0.604	0.345176	64.175	7.24919e-06	-0.748466
2	0	0	1	0	1	9.5089	-0.428998	-0.42929	-0.0185548	2	-0.000109787	12	0	0.63	0.345339	64.175	7.96538e-06	-0.774629
2	0	0	1	0	1	9.5349	-0.455001	-0.455346	-0.0191532	2	-0.000110277	12	0	0.656	0.345606	64.175	8.72131e-06	-0.800952
2	0	0	1	0	1	9.5609	-0.481011	-0.481369	-0.0199249	2	-0.000110785	12	0	0.682	0.345849	64.175	9.59126e-06	-0.827218
2	0	0	1	0	1	9.5869	-0.507011	-0.507331	-0.0208733	2	-0.000111315	12	0	0.708	0.346187	64.175	1.05897e-05	-0.853517
2	0	0	1	0	1	9.6129	-0.533004	-0.533298	-0.0219347	2	-0.00011187	12	0	0.734	0.346497	64.175	1.16977e-05	-0.879794
2	0	0	1	0	1	9.6389	-0.559004	-0.559308	-0.0231357	2	-0.000112455	12	0	0.76	0.346918	64.175	1.294e-05	-0.906226
2	0	0	1	0	1	9.6649	-0.585007	-0.585305	-0.0244383	2	-0.000113074	12	0	0.786	0.347341	64.175	1.43039e-05	-0.932646
2	0	0	1	0	1	9.6909	-0.610997	-0.611279	-0.0258831	2	-0.000113727	12	0	0.812	0.347834	64.175	1.58218e-05	-0.959114
2	0	0	1	0	1	9.7169	-0.637003	-0.637324	-0.0273104	2	-0.000114419	12	0	0.838	0.348298	64.175	1.74056e-05	-0.985622
2	0	0	1	0	1	9.7429	-0.663	-0.663316	-0.0288207	2	-0.000115148	12	0	0.864	0.348824	64.175	1.91173e-05	-1.01214
2	0	0	1	0	1	9.7689	-0.689	-0.689339	-0.0301821	2	-0.000115914	12	0	0.89	0.34928	64.175	2.08057e-05	-1.03862
2	0	0	1	0	1	9.7949	-0.715001	-0.715284	-0.0315171	2	-0.000116717	12	0	0.916	0.349722	64.175	2.25436e-05	-1.06501
2	0	0	1	0	1	9.8209	-0.740996	-0.741219	-0.0327941	2	-0.000117553	12	0	0.942	0.350243	64.175	2.43076e-05	-1.09146
2	0	0	1	0	1	9.8469	-0.767005	-0.767299	-0.0340211	2	-0.000118421	12	0	0.968	0.350682	64.175	2.61043e-05	-1.11798
2	0	0	1	0	1	9.8729	-0.793001	-0.793294	-0.0352079	2	-0.000119321	12	0	0.994	0.35117	64.175	2.79303e-05	-1.14446
2	0	0	1	0	1	9.8989	-0.819006	-0.819344	-0.036477	2	-0.000120251	12	0	1.02	0.351625	64.175	2.98872e-05	-1.17097
2	0	0	1	0	1	9.9249	-0.845006	-0.845347	-0.0379188	2	-0.000121217	12	0	1.046	0.352134	64.175	3.20545e-05	-1.19748
2	0	0	1	0	1	9.9509	-0.871004	-0.871372	-0.0399354	2	-0.000122227	12	0	1.072	0.352808	64.175	3.47986e-05	-1.22418
2	0	0	1	0	1	9.9769	-0.896998	-0.89732	-0.0433334	2	-0.000123305	12	0	1.098	0.353785	64.175	3.88839e-05	-1.25111
2	0	0	1	0	1	10.0029	-0.923006	-0.923285	-0.0500967	2	-0.000124509	12	0	1.124	0.355645	64.175	4.62536e-05	-1.27893
2	0	0	1	0	1	10.0289	-0.948996	-0.949292	-0.0643339	2	-0.000125974	12	0	1.15	0.35918	64.175	6.10717e-05	-1.30847
2	0	0	1	0	1	10.0549	-0.975006	-0.975361	-0.0915375	2	-0.00012797	12	0	1.176	0.366085	64.175	8.92821e-05	-1.34145
2	0	0	1	0	1	10.0809	-1.00101	-1.00135	-0.131832	2	-0.000130857	12	0	1.202	0.376555	64.175	0.000132009	-1.3779
2	0	0	1	0	1	10.1069	-1.02699	-1.02733	-0.173448	2	-0.000134845	12	0	1.228	0.38806	64.175	0.000178189	-1.41539
2	0	0	1	0	1	10.1329	-1.05299	-1.05331	-0.202948	2	-0.000139773	12	0	1.254	0.397182	64.175	0.000213767	-1.45049
2	0	0	1	0	1	10.1589	-1.079	-1.07932	-0.219196	2	-0.000145286	12	0	1.28	0.403304	64.175	0.000236583	-1.48263
2	0	0	1	0	1	10.1849	-1.105	-1.1053	-0.227265	2	-0.000151102	12	0	1.306	0.407291	64.175	0.000251195	-1.51259
2	0	0	1	0	1	10.2109	-1.131	-1.13133	-0.23127	2	-0.000157068	12	0	1.332	0.410084	64.175	0.000261643	-1.54141
2	0	0	1	0	1	10.2369	-1.157	-1.15731	-0.233357	2	-0.000163111	12	0	1.358	0.412253	64.175	0.000270067	-1.56957
2	0	0	1	0	1	10.2629	-1.183	-1.18331	-0.234441	2	-0.000169193	12	0	1.384	0.413926	64.175	0.000277415	-1.59723
2	0	0	1	0	1	10.2837	-1.19668	-1.19703	-0.22864	2	-0.000174058	12	0	1.4048	0.413869	64.175	0.000273688	-1.6109
2	0	0	1	0	1	10.3097	-1.17067	-1.17098	-0.217044	2	-0.000179823	12	0	1.4308	0.412151	64.175	0.000254154	-1.58313
2	0	0	1	0	1	10.3357	-1.14467	-1.14497	-0.21161	2	-0.00018539	12	0	1.4568	0.411656	64.175	0.000242287	-1.55663
2	0	0	1	0	1	10.3617	-1.11866	-1.11896	-0.207173	2	-0.000190836	12	0	1.4828	0.411305	64.175	0.000231818	-1.53026
2	0	0	1	0	1	10.3877	-1.09265	-1.09297	-0.200522	2	-0.000196145	12	0	1.5088	0.410449	64.175	0.000219164	-1.50342
2	0	0	1	0	1	10.4137	-1.06668	-1.067	-0.186959	2	-0.000201204	12	0	1.5348	0.407874	64.175	0.000199485	-1.47487
2	0	0	1	0	1	10.4397	-1.04066	-1.04103	-0.159398	2	-0.000205741	12	0	1.5608	0.401735	64.175	0.000165938	-1.44276
2	0	0	1	0	1	10.4657	-1.01466	-1.01496	-0.114892	2	-0.000209334	12	0	1.5868	0.391212	64.175	0.00011661	-1.40617
2	0	0	1	0	1	10.4917	-0.988668	-0.989029	-0.0652728	2	-0.00021166	12	0	1.6128	0.378601	64.175	6.45566e-05	-1.36763
2	0	0	1	0	1	10.5177	-0.962672	-0.963036	-0.0294262	2	-0.000212847	12	0	1.6388	0.368466	64.175	2.83385e-05	-1.3315
2	0	0	1	0	1	10.5437	-0.936672	-0.937024	-0.011304	2	-0.000213343	12	0	1.6648	0.362346	64.175	1.05922e-05	-1.29937
2	0	0	1	0	1	10.5697	-0.910659	-0.910956	-0.00379185	2	-0.000213525	12	0	1.6908	0.358897	64.175	3.45421e-06	-1.26985
2	0	0	1	0	1	10.5957	-0.884669	-0.885072	-0.000979907	2	-0.000213582	12	0	1.7168	0.356958	64.175	8.67288e-07	-1.24203
2	0	0	1	0	1	10.6217	-0.858667	-0.859023	0.000139249	2	-0.000213591	12	0	0.002	0.355511	64.175	-1.19618e-07	-1.21453
2	0	0	1	0	1	10.6477	-0.832665	-0.833034	0.000679294	2	-0.00021358	12	0	0.028	0.354494	64.175	-5.65875e-07	-1.18753
2	1	0	1	0	1	10.6737	-0.806655	-0.806997	0.00105936	2	-0.000213557	12	0	0.054	0.353646	64.175	-8.54898e-07	-1.16064
2	1	0	1	0	1	10.6997	-0.780668	-0.780959	0.00141927	2	-0.000213526	12	0	0.08	0.35296	64.175	-1.10839e-06	-1.13392
2	1	0	1	0	1	10.7257	-0.754673	-0.754957	0.00178908	2	-0.000213485	12	0	0.106	0.35223	64.175	-1.35068e-06	-1.10719
2	1	0	1	0	1	10.7517	-0.728655	-0.728927	0.00222324	2	-0.000213433	12	0	0.132	0.351639	64.175	-1.62058e-06	-1.08057
2	1	0	1	0	1	10.7777	-0.702667	-0.702976	0.00263724	2	-0.000213371	12	0	0.158	0.351124	64.175	-1.85392e-06	-1.0541
2	1	0	1	0	1	10.8037	-0.676673	-0.676959	0.0031186	2	-0.000213297	12	0	0.184	0.350544	64.175	-2.11116e-06	-1.0275
2	1	0	1	0	1	10.8297	-0.650661	-0.650959	0.00354462	2	-0.000213211	12	0	0.21	0.350052	64.175	-2.3074e-06	-1.00101
2	1	0	1	0	1	10.8557	-0.624675	-0.624986	0.00401961	2	-0.000213113	12	0	0.236	0.349635	64.175	-2.5122e-06	-0.974621
2	1	0	1	0	1	10.8817	-0.598661	-0.59897	0.00443273	2	-0.000213003	12	0	0.262	0.349176	64.175	-2.65507e-06	-0.948146
2	1	0	1	0	1	10.9077	-0.572661	-0.57297	0.00484267	2	-0.000212883	12	0	0.288	0.348776	64.175	-2.77471e-06	-0.921747
2	1	0	1	0	1	10.9337	-0.546673	-0.547023	0.00518067	2	-0.000212753	12	0	0.314	0.348436	64.175	-2.83394e-06	-0.895459
2	1	0	1	0	1	10.9597	-0.520672	-0.520959	0.00551654	2	-0.000212614	12	0	0.34	0.348068	64.175	-2.87389e-06	-0.869026
2	1	0	1	0	1	10.9857	-0.494675	-0.494963	0.0058471	2	-0.000212467	12	0	0.366	0.347701	64.175	-2.8941e-06	-0.842664
2	1	0	1	0	1	11.0117	-0.468661	-0.469007	0.00614956	2	-0.000212311	12	0	0.392	0.347431	64.175	-2.88419e-06	-0.816438
2	1	0	1	0	1	11.0377	-0.442666	-0.442961	0.00649852	2	-0.000212147	12	0	0.418	0.347126	64.175	-2.87859e-06	-0.790087
2	1	0	1	0	1	11.0637	-0.416675	-0.417007	0.00677976	2	-0.000211975	12	0	0.444	0.34685	64.175	-2.82721e-06	-0.763857
2	1	0	1	0	1	11.0897	-0.390674	-0.390958	0.00709919	2	-0.000211795	12	0	0.47	0.346588	64.175	-2.77549e-06	-0.737546
2	1	0	1	0	1	11.1157	-0.364657	-0.364959	0.00739228	2	-0.000211607	12	0	0.496	0.346295	64.175	-2.69788e-06	-0.711254
2	1	0	1	0	1	11.1417	-0.338659	-0.338957	0.00774742	2	-0.000211411	12	0	0.522	0.346012	64.175	-2.62604e-06	-0.684968
2	1	0	1	0	1	11.1677	-0.312668	-0.312972	0.00806703	2	-0.000211206	12	0	0.548	0.345771	64.175	-2.52476e-06	-0.658743
2	1	0	1	0	1	11.1937	-0.286671	-0.28696	0.00841404	2	-0.000210993	12	0	0.574	0.345548	64.175	-2.41449e-06	-0.632508
2	1	0	1	0	1	11.2197	-0.260676	-0.260937	0.00871296	2	-0.00021077	12	0	0.6	0.345337	64.175	-2.27353e-06	-0.606274
2	1	0	1	0	1	11.2457	-0.234662	-0.234992	0.00902355	2	-0.000210539	12	0	0.626	0.345072	64.175	-2.12047e-06	-0.580065
2	1	0	1	0	1	11.2717	-0.208664	-0.208996	0.00930498	2	-0.000210301	12	0	0.652	0.344835	64.175	-1.9447e-06	-0.553831
2	1	0	1	0	1	11.2977	-0.182662	-0.182974	0.00952789	2	-0.000210057	12	0	0.678	0.344632	64.175	-1.74335e-06	-0.527606
2	1	0	1	0	1	11.3237	-0.156668	-0.157008	0.00977131	2	-0.000209807	12	0	0.704	0.344449	64.175	-1.53417e-06	-0.501457
2	1	0	1	0	1	11.3497	-0.13067	-0.13098	0.00993341	2	-0.000209552	12	0	0.73	0.344284	64.175	-1.30108e-06	-0.475265
2	1	0	1	0	1	11.3757	-0.104671	-0.104983	0.0101485	2	-0.000209291	12	0	0.756	0.344072	64.175	-1.06542e-06	-0.449055
2	1	0	1	0	1	11.4017	-0.0786737	-0.0789936	0.0104286	2	-0.000209023	12	0	0.782	0.343881	64.175	-8.23788e-07	-0.422874
2	1	0	1	0	1	11.4277	-0.0526681	-0.0529785	0.0107404	2	-0.000208749	12	0	0.808	0.343724	64.175	-5.6901e-07	-0.396703
2	1	0	1	0	1	11.4537	-0.0266586	-0.0269805	0.0111653	2	-0.000208464	12	0	0.834	0.343445	64.175	-3.01247e-07	-0.370426
2	1	0	1	0	1	11.4797	-0.000671298	-0.00103753	0.0117172	2	-0.000208168	12	0	0.86	0.343197	64.175	-1.2157e-08	-0.344235
2	1	0	1	0	1	11.5057	0.0253334	0.0250149	0.0123649	2	-0.000207855	12	0	0.886	0.342876	64.175	3.09308e-07	-0.317862
2	1	0	1	0	1	11.5317	0.0513316	0.0510009	0.0133262	2	-0.000207521	12	0	0.912	0.342529	64.175	6.7965e-07	-0.291528
2	1	0	1	0	1	11.5577	0.0773279	0.077015	0.0145967	2	-0.000207159	12	0	0.938	0.34215	64.175	1.12417e-06	-0.265135
2	1	0	1	0	1	11.5837	0.103327	0.103017	0.0162953	2	-0.000206758	12	0	0.964	0.341552	64.175	1.6787e-06	-0.238534
2	1	0	1	0	1	11.6097	0.129329	0.129062	0.0184304	2	-0.000206308	12	0	0.99	0.34091	64.175	2.37866e-06	-0.211848
2	1	0	1	0	1	11.6357	0.155336	0.155041	0.0209038	2	-0.000205797	12	0	1.016	0.340112	64.175	3.24094e-06	-0.185072
2	1	0	1	0	1	11.6617	0.181327	0.181047	0.0236633	2	-0.000205217	12	0	1.042	0.339245	64.175	4.28416e-06	-0.158198
2	1	0	1	0	1	11.6877	0.207326	0.206988	0.026206	2	-0.000204568	12	0	1.068	0.338406	64.175	5.42433e-06	-0.131417
2	1	0	1	0	1	11.7137	0.233336	0.233048	0.0283642	2	-0.000203857	12	0	1.094	0.337617	64.175	6.61024e-06	-0.104569
2	1	0	1	0	1	11.7397	0.259332	0.259083	0.0301245	2	-0.000203095	12	0	1.12	0.336914	64.175	7.80476e-06	-0.0778311
2	1	0	1	0	1	11.7657	0.285335	0.285038	0.0314443	2	-0.000202294	12	0	1.146	0.336334	64.175	8.96281e-06	-0.0512964
2	1	0	1	0	1	11.7917	0.311324	0.311046	0.0323828	2	-0.000201464	12	0	1.172	0.335871	64.175	1.00726e-05	-0.0248243
2	1	0	1	0	1	11.8177	0.337331	0.337033	0.0329409	2	-0.000200614	12	0	1.198	0.335456	64.175	1.11022e-05	0.0015772
2	1	0	1	0	1	11.8437	0.363329	0.363053	0.0331217	2	-0.000199755	12	0	1.224	0.335228	64.175	1.2025e-05	0.0278257
2	1	0	1	0	1	11.8697	0.389339	0.38908	0.0330211	2	-0.000198896	12	0	1.25	0.335021	64.175	1.28479e-05	0.0540587
2	1	0	1	0	1	11.8957	0.415329	0.415023	0.032637	2	-0.000198042	12	0	1.276	0.334919	64.175	1.35451e-05	0.080104
2	1	0	1	0	1	11.9217	0.441335	0.441099	0.0320941	2	-0.0001972	12	0	1.302	0.334894	64.175	1.41567e-05	0.106205
2	1	0	1	0	1	11.9477	0.46733	0.467034	0.0314346	2	-0.000196375	12	0	1.328	0.334903	64.175	1.4681e-05	0.132131
2	1	0	1	0	1	11.9737	0.493338	0.493056	0.0307756	2	-0.000195567	12	0	1.354	0.334862	64.175	1.51741e-05	0.158195
2	1	0	1	0	1	11.9997	0.519333	0.519041	0.0301532	2	-0.000194775	12	0	1.38	0.334938	64.175	1.56507e-05	0.184103
2	1	0	1	0	1	12.0257	0.545329	0.54512	0.0296435	2	-0.000193998	12	0	1.406	0.334929	64.175	1.61593e-05	0.210191
2	1	0	1	0	1	12.0517	0.571333	0.571061	0.0294185	2	-0.000193231	12	0	1.432	0.334872	64.175	1.67998e-05	0.236189
2	1	0	1	0	1	12.0777	0.59734	0.597075	0.0292645	2	-0.000192469	12	0	1.458	0.334829	64.175	1.74731e-05	0.262246
2	1	0	1	0	0	12.0981	0.582602	0.582352	0.0199141	2	-0.000191993	12	0	1.4784	0.336856	64.175	1.1597e-05	0.245496
2	1	0	1	0	0	12.1241	0.556592	0.55635	0.0160929	2	-0.00019153	12	0	1.5044	0.337908	64.175	8.95329e-06	0.218442
2	1	0	1	0	0	12.1501	0.530593	0.530346	0.0138127	2	-0.000191143	12	0	1.5304	0.338564	64.175	7.32552e-06	0.191782
2	1	0	1	0	0	12.1761	0.504594	0.504294	0.0120969	2	-0.000190806	12	0	1.5564	0.339052	64.175	6.10042e-06	0.165242
2	1	0	1	0	0	12.2021	0.478598	0.478335	0.0107517	2	-0.00019051	12	0	1.5824	0.339473	64.175	5.14292e-06	0.138862
2	1	0	1	0	0	12.2281	0.452601	0.452376	0.00949925	2	-0.000190246	12	0	1.6084	0.339834	64.175	4.29723e-06	0.112541
2	1	0	0	0	0	12.2526	0.428044	0.4277	0.00844038	3	-0.000190026	12	0	1.6329	0.340035	64.175	3.60995e-06	0.0876653
2	1	0	1	0	0	12.2777	0.403001	0.402732	0.00749464	3	-0.000189825	12	0	1.658	0.340482	64.175	3.01833e-06	0.0622497
2	1	0	1	0	0	12.3037	0.377001	0.376745	0.00654165	3	-0.000189643	12	0	1.684	0.340771	64.175	2.46453e-06	0.0359737
2	1	0	1	0	0	12.3297	0.350998	0.350725	0.0056903	3	-0.000189483	12	0	1.71	0.341041	64.175	1.99573e-06	0.00968465
2	1	0	1	0	0	12.3557	0.325004	0.324745	0.00481457	3	-0.000189346	12	0	1.736	0.341311	64.175	1.56351e-06	-0.016566
2	1	0	1	0	0	12.3817	0.298995	0.29867	0.00402881	3	-0.000189231	12	0	1.762	0.341513	64.175	1.20328e-06	-0.0428432
2	1	0	1	0	0	12.4077	0.27299	0.272726	0.00322855	3	-0.000189136	12	0	1.788	0.341794	64.175	8.8051e-07	-0.0690676
2	1	0	1	0	0	12.4337	0.246991	0.246691	0.00239754	3	-0.000189063	12	0	1.814	0.342069	64.175	5.91451e-07	-0.0953778
2	1	0	1	0	0	12.4597	0.220993	0.220702	0.0014525	3	-0.000189013	12	0	1.84	0.342326	64.175	3.2057e-07	-0.121624
2	1	0	1	0	0	12.4857	0.194988	0.194714	0.000497747	3	-0.000188987	12	0	1.866	0.342618	64.175	9.69181e-08	-0.147905
2	1	0	1	0	0	12.5117	0.168992	0.168731	-0.000481227	3	-0.000188988	12	0	0.012	0.342922	64.175	-8.11979e-08	-0.174191
2	0	0	1	0	0	12.5377	0.142992	0.142704	-0.00144111	3	-0.000189013	12	0	0.038	0.343218	64.175	-2.05652e-07	-0.200514
2	0	0	1	0	0	12.5637	0.116994	0.116722	-0.00219187	3	-0.00018906	12	0	0.064	0.343447	64.175	-2.55839e-07	-0.226725
2	0	0	1	0	0	12.5897	0.0910035	0.0907345	-0.00278176	3	-0.000189125	12	0	0.09	0.343674	64.175	-2.52402e-07	-0.25294
2	0	0	1	0	0	12.6157	0.0649863	0.0646996	-0.00335822	3	-0.000189205	12	0	0.116	0.343888	64.175	-2.17276e-07	-0.279189
2	0	0	1	0	0	12.6417	0.0390081	0.0387082	-0.00392178	3	-0.0001893	12	0	0.142	0.344109	64.175	-1.51805e-07	-0.305401
2	0	0	1	0	0	12.6677	0.0129877	0.0127008	-0.00444857	3	-0.000189408	12	0	0.168	0.344298	64.175	-5.65002e-08	-0.331597
2	0	0	1	0	0	12.6937	-0.0130004	-0.0133393	-0.00506179	3	-0.000189532	12	0	0.194	0.344497	64.175	6.75207e-08	-0.357836
2	0	0	1	0	0	12.7197	-0.0390104	-0.0393461	-0.0056752	3	-0.000189671	12	0	0.22	0.344747	64.175	2.23297e-07	-0.384093
2	0	0	1	0	0	12.7457	-0.0649947	-0.0652915	-0.00637204	3	-0.000189827	12	0	0.246	0.344926	64.175	4.1604e-07	-0.410218
2	0	0	1	0	0	12.7717	-0.0909989	-0.0913439	-0.00710742	3	-0.000190001	12	0	0.272	0.345178	64.175	6.4922e-07	-0.436522
2	0	0	1	0	0	12.7977	-0.117001	-0.117293	-0.00789583	3	-0.000190195	12	0	0.298	0.345418	64.175	9.26123e-07	-0.462711
2	0	0	1	0	0	12.8237	-0.143002	-0.143335	-0.00875001	3	-0.000190411	12	0	0.324	0.345722	64.175	1.25419e-06	-0.489057
2	0	0	1	0	0	12.8497	-0.169003	-0.169276	-0.009674	3	-0.00019065	12	0	0.35	0.346036	64.175	1.63757e-06	-0.515312
2	0	0	1	0	0	12.8757	-0.194995	-0.19527	-0.0107055	3	-0.000190915	12	0	0.376	0.346365	64.175	2.09046e-06	-0.541635
2	0	0	1	0	0	12.9017	-0.220998	-0.221277	-0.0117633	3	-0.000191207	12	0	0.402	0.346619	64.175	2.60295e-06	-0.567896
2	0	0	1	0	0	12.9277	-0.247013	-0.247323	-0.0129304	3	-0.000191528	12	0	0.428	0.347089	64.175	3.19797e-06	-0.594412
2	0	0	1	0	0	12.9537	-0.273006	-0.27332	-0.0140508	3	-0.000191879	12	0	0.454	0.347458	64.175	3.84035e-06	-0.620778
2	0	0	1	0	0	12.9797	-0.299005	-0.299316	-0.0149679	3	-0.000192256	12	0	0.48	0.347717	64.175	4.48011e-06	-0.647033
2	0	0	1	0	0	13.0057	-0.325008	-0.32532	-0.0156723	3	-0.000192655	12	0	0.506	0.348034	64.175	5.09851e-06	-0.673354
2	0	0	1	0	0	13.0317	-0.351011	-0.351297	-0.016072	3	-0.000193067	12	0	0.532	0.348258	64.175	5.64604e-06	-0.699556
2	0	0	1	0	0	13.0577	-0.377008	-0.377358	-0.0162523	3	-0.000193488	12	0	0.558	0.34836	64.175	6.13294e-06	-0.725719
2	0	0	1	0	0	13.0837	-0.403006	-0.403293	-0.0164264	3	-0.000193912	12	0	0.584	0.348506	64.175	6.62466e-06	-0.751799
2	0	0	1	0	0	13.1097	-0.429002	-0.429331	-0.0166391	3	-0.000194341	12	0	0.61	0.348643	64.175	7.14368e-06	-0.777974
2	0	0	1	0	0	13.1357	-0.455003	-0.455294	-0.0170322	3	-0.000194778	12	0	0.636	0.34877	64.175	7.75467e-06	-0.804064
2	0	0	1	0	0	13.1617	-0.481004	-0.481309	-0.01772	3	-0.000195229	12	0	0.662	0.349018	64.175	8.52882e-06	-0.830327
2	0	0	1	0	0	13.1877	-0.507005	-0.507339	-0.0186186	3	-0.000195701	12	0	0.688	0.349324	64.175	9.44594e-06	-0.856663
2	0	0	1	0	0	13.2137	-0.533003	-0.53329	-0.0197819	3	-0.000196199	12	0	0.714	0.349674	64.175	1.05495e-05	-0.882963
2	0	0	1	0	0	13.2397	-0.559004	-0.559289	-0.021107	3	-0.00019673	12	0	0.74	0.350148	64.175	1.18049e-05	-0.909437
2	0	0	1	0	0	13.2657	-0.585007	-0.585298	-0.0227091	3	-0.0001973	12	0	0.766	0.350663	64.175	1.32916e-05	-0.935961
2	0	0	1	0	0	13.2917	-0.611009	-0.611292	-0.024462	3	-0.000197913	12	0	0.792	0.351204	64.175	1.49535e-05	-0.962496
2	0	0	1	0	0	13.3177	-0.637006	-0.63729	-0.0262425	3	-0.000198572	12	0	0.818	0.351761	64.175	1.67241e-05	-0.989051
2	0	0	1	0	0	13.3437	-0.663006	-0.663347	-0.0280336	3	-0.000199278	12	0	0.844	0.352368	64.175	1.8596e-05	-1.01572
2	0	0	1	0	0	13.3697	-0.689008	-0.689272	-0.0297783	3	-0.000200029	12	0	0.87	0.3529	64.175	2.05254e-05	-1.04217
2	0	0	1	0	0	13.3957	-0.715006	-0.715302	-0.0315238	3	-0.000200826	12	0	0.896	0.353458	64.175	2.2549e-05	-1.06876
2	0	0	1	0	0	13.4217	-0.741013	-0.741352	-0.0331333	3	-0.000201666	12	0	0.922	0.354085	64.175	2.45635e-05	-1.09544
2	0	0	1	0	0	13.4477	-0.76701	-0.767294	-0.0347294	3	-0.000202547	12	0	0.948	0.354673	64.175	2.66477e-05	-1.12197
2	0	0	1	0	0	13.4737	-0.792999	-0.79325	-0.0362562	3	-0.000203469	12	0	0.974	0.355171	64.175	2.87602e-05	-1.14842
2	0	0	1	0	0	13.4997	-0.819012	-0.819356	-0.0378815	3	-0.000204432	12	0	1	0.355776	64.175	3.10384e-05	-1.17513
2	0	0	1	0	0	13.5257	-0.845004	-0.845336	-0.0396409	3	-0.000205438	12	0	1.026	0.356418	64.175	3.35099e-05	-1.20175
2	0	0	1	0	0	13.5517	-0.871003	-0.871326	-0.0419086	3	-0.000206496	12	0	1.052	0.357136	64.175	3.6516e-05	-1.22846
2	0	0	1	0	0	13.5777	-0.897008	-0.897309	-0.0455169	3	-0.000207628	12	0	1.078	0.358234	64.175	4.08427e-05	-1.25554
2	0	0	1	0	0	13.6037	-0.923007	-0.923322	-0.0524167	3	-0.00020889	12	0	1.104	0.36007	64.175	4.83975e-05	-1.28339
2	0	0	1	0	0	13.6297	-0.949007	-0.949318	-0.0667975	3	-0.000210417	12	0	1.13	0.363754	64.175	6.3412e-05	-1.31307
2	0	0	1	0	0	13.6557	-0.974998	-0.975306	-0.0941999	3	-0.00021248	12	0	1.156	0.370737	64.175	9.18737e-05	-1.34604
2	0	0	1	0	0	13.6817	-1.00101	-1.00134	-0.134987	3	-0.000215444	12	0	1.182	0.381344	64.175	0.000135168	-1.38268
2	0	0	1	0	0	13.7077	-1.027	-1.02731	-0.176488	3	-0.000219514	12	0	1.208	0.392799	64.175	0.000181307	-1.42011
2	0	0	1	0	0	13.7337	-1.05298	-1.0533	-0.205356	3	-0.000224514	12	0	1.234	0.401815	64.175	0.000216302	-1.45512
2	0	0	1	0	0	13.7597	-1.079	-1.0793	-0.220646	3	-0.000230076	12	0	1.26	0.40771	64.175	0.000238144	-1.48701
2	0	0	1	0	0	13.7857	-1.10499	-1.10532	-0.227889	3	-0.00023592	12	0	1.286	0.411591	64.175	0.000251891	-1.51691
2	0	0	1	0	0	13.8117	-1.131	-1.1313	-0.23127	3	-0.000241895	12	0	1.312	0.414189	64.175	0.000261635	-1.54549
2	0	0	1	0	0	13.8377	-1.157	-1.15731	-0.232773	3	-0.000247931	12	0	1.338	0.416195	64.175	0.00026939	-1.5735
2	0	0	1	0	0	13.8637	-1.18301	-1.1833	-0.233463	3	-0.000253993	12	0	1.364	0.417799	64.175	0.000276258	-1.6011
2	0	0	1	0	0	13.8845	-1.19667	-1.197	-0.227263	3	-0.000258835	12	0	1.3848	0.417516	64.175	0.000272034	-1.61451
2	0	0	1	0	0	13.9105	-1.17068	-1.17094	-0.215431	3	-0.000264562	12	0	1.4108	0.415786	64.175	0.000252256	-1.58672
2	0	0	1	0	0	13.9365	-1.14467	-1.14497	-0.209981	3	-0.000270086	12	0	1.4368	0.415222	64.175	0.000240421	-1.56019
2	0	0	1	0	0	13.9625	-1.11866	-1.11897	-0.205468	3	-0.000275488	12	0	1.4628	0.41487	64.175	0.000229913	-1.53384
2	0	0	1	0	0	13.9885	-1.09266	-1.09296	-0.198826	3	-0.000280752	12	0	1.4888	0.413947	64.175	0.000217309	-1.50691
2	0	0	1	0	0	14.0145	-1.06667	-1.067	-0.185292	3	-0.000285767	12	0	1.5148	0.411361	64.175	0.000197707	-1.47836
2	0	0	1	0	0	14.0405	-1.04066	-1.04098	-0.158062	3	-0.000290265	12	0	1.5408	0.405363	64.175	0.00016454	-1.44635
2	0	0	1	0	0	14.0665	-1.01466	-1.01498	-0.113981	3	-0.000293829	12	0	1.5668	0.394856	64.175	0.000115689	-1.40984
2	0	0	1	0	0	14.0925	-0.988667	-0.988988	-0.0648066	3	-0.000296137	12	0	1.5928	0.382385	64.175	6.4093e-05	-1.37137
2	0	0	1	0	0	14.1185	-0.962676	-0.963005	-0.0292556	3	-0.000297316	12	0	1.6188	0.372335	64.175	2.81733e-05	-1.33534
2	0	0	1	0	0	14.1445	-0.93666	-0.937003	-0.0112088	3	-0.000297808	12	0	1.6448	0.366256	64.175	1.05026e-05	-1.30326
2	0	0	1	0	0	14.1705	-0.910663	-0.911004	-0.00365874	3	-0.000297986	12	0	1.6708	0.362838	64.175	3.33312e-06	-1.27384
2	0	0	1	0	0	14.1965	-0.88466	-0.885015	-0.000700427	3	-0.000298038	12	0	1.6968	0.360816	64.175	6.19889e-07	-1.24583
2	0	0	1	0	0	14.2225	-0.858672	-0.859049	0.000539112	3	-0.000298038	12	0	0.01	0.359432	64.175	-4.63124e-07	-1.21848
2	1	0	1	0	0	14.2485	-0.832666	-0.832992	0.00107014	3	-0.000298017	12	0	0.036	0.35837	64.175	-8.91419e-07	-1.19136
2	1	0	1	0	0	14.2745	-0.80666	-0.806944	0.0015598	3	-0.000297983	12	0	0.062	0.357491	64.175	-1.25868e-06	-1.16443
2	1	0	1	0	0	14.3005	-0.780658	-0.780992	0.00193598	3	-0.000297938	12	0	0.088	0.356749	64.175	-1.51198e-06	-1.13774
2	1	0	1	0	0	14.3265	-0.754667	-0.755012	0.00233054	3	-0.000297883	12	0	0.114	0.356048	64.175	-1.75958e-06	-1.11106
2	1	0	1	0	0	14.3525	-0.728674	-0.728964	0.00275621	3	-0.000297817	12	0	0.14	0.355467	64.175	-2.00918e-06	-1.08443
2	1	0	1	0	0	14.3785	-0.70266	-0.702982	0.00321123	3	-0.00029774	12	0	0.166	0.354873	64.175	-2.25743e-06	-1.05785
2	1	0	1	0	0	14.4045	-0.676675	-0.676973	0.00365546	3	-0.000297651	12	0	0.192	0.354365	64.175	-2.47465e-06	-1.03134
2	1	0	1	0	0	14.4305	-0.650668	-0.650964	0.00414	3	-0.00029755	12	0	0.218	0.35384	64.175	-2.69499e-06	-1.0048
2	1	0	1	0	0	14.4565	-0.624667	-0.624967	0.0045586	3	-0.000297438	12	0	0.244	0.353342	64.175	-2.84897e-06	-0.978308
2	1	0	1	0	0	14.4825	-0.598675	-0.598968	0.00500071	3	-0.000297314	12	0	0.27	0.352961	64.175	-2.99526e-06	-0.951929
2	1	0	1	0	0	14.5085	-0.572669	-0.572944	0.00531731	3	-0.00029718	12	0	0.296	0.352637	64.175	-3.04652e-06	-0.925581
2	1	0	1	0	0	14.5345	-0.54666	-0.546954	0.0056873	3	-0.000297037	12	0	0.322	0.352183	64.175	-3.11069e-06	-0.899137
2	1	0	1	0	0	14.5605	-0.520664	-0.520975	0.00601999	3	-0.000296885	12	0	0.348	0.351862	64.175	-3.13626e-06	-0.872837
2	1	0	1	0	0	14.5865	-0.494671	-0.494966	0.00638538	3	-0.000296725	12	0	0.374	0.35155	64.175	-3.16054e-06	-0.846515
2	1	0	1	0	0	14.6125	-0.468676	-0.469034	0.0066562	3	-0.000296556	12	0	0.4	0.351205	64.175	-3.12198e-06	-0.820239
2	1	0	1	0	0	14.6385	-0.442658	-0.442992	0.00696838	3	-0.00029638	12	0	0.426	0.35089	64.175	-3.08693e-06	-0.793882
2	1	0	1	0	0	14.6645	-0.416663	-0.417006	0.00726748	3	-0.000296195	12	0	0.452	0.350631	64.175	-3.03058e-06	-0.767637
2	1	0	1	0	0	14.6905	-0.39067	-0.390955	0.0076258	3	-0.000296002	12	0	0.478	0.350304	64.175	-2.98135e-06	-0.741259
2	1	0	1	0	0	14.7165	-0.364671	-0.36494	0.00798713	3	-0.000295799	12	0	0.504	0.350078	64.175	-2.91483e-06	-0.715018
2	1	0	1	0	0	14.7425	-0.33867	-0.338983	0.00834739	3	-0.000295587	12	0	0.53	0.349784	64.175	-2.82963e-06	-0.688767
2	1	0	1	0	0	14.7685	-0.312663	-0.312984	0.00875309	3	-0.000295365	12	0	0.556	0.34954	64.175	-2.73958e-06	-0.662525
2	1	0	1	0	0	14.7945	-0.286667	-0.286947	0.00909921	3	-0.000295134	12	0	0.582	0.349227	64.175	-2.61099e-06	-0.636173
2	1	0	1	0	0	14.8205	-0.260669	-0.260977	0.00948971	3	-0.000294892	12	0	0.608	0.349022	64.175	-2.47659e-06	-0.609998
2	1	0	1	0	0	14.8465	-0.234659	-0.234952	0.00974249	3	-0.000294642	12	0	0.634	0.348714	64.175	-2.28902e-06	-0.583666
2	1	0	1	0	0	14.8725	-0.20866	-0.208939	0.0100128	3	-0.000294384	12	0	0.66	0.348516	64.175	-2.09206e-06	-0.557455
2	1	0	1	0	0	14.8985	-0.182661	-0.182977	0.0102527	3	-0.00029412	12	0	0.686	0.348318	64.175	-1.87601e-06	-0.531295
2	1	0	1	0	0	14.9245	-0.156664	-0.157015	0.0104627	3	-0.00029385	12	0	0.712	0.348149	64.175	-1.6428e-06	-0.505165
2	1	0	1	0	0	14.9505	-0.130669	-0.131003	0.0107158	3	-0.000293576	12	0	0.738	0.347938	64.175	-1.4038e-06	-0.478941
2	1	0	1	0	0	14.9765	-0.104673	-0.105001	0.0109214	3	-0.000293295	12	0	0.764	0.347729	64.175	-1.14676e-06	-0.45273
2	1	0	1	0	0	15.0025	-0.0786715	-0.0789562	0.0111896	3	-0.000293008	12	0	0.79	0.347528	64.175	-8.83485e-07	-0.426484
2	1	0	1	0	0	15.0285	-0.0526576	-0.053016	0.0115661	3	-0.000292712	12	0	0.816	0.34736	64.175	-6.13188e-07	-0.400376
2	1	0	1	0	0	15.0545	-0.0266612	-0.0270247	0.0119426	3	-0.000292408	12	0	0.842	0.347102	64.175	-3.22745e-07	-0.374126
2	1	0	1	0	0	15.0805	-0.000673781	-0.00101688	0.0125198	3	-0.00029209	12	0	0.868	0.346816	64.175	-1.27311e-08	-0.347833
2	1	0	1	0	0	15.1065	0.0253279	0.0250611	0.0132258	3	-0.000291756	12	0	0.894	0.346536	64.175	3.31454e-07	-0.321475
2	1	0	1	0	0	15.1325	0.0513292	0.0510386	0.0141502	3	-0.000291401	12	0	0.92	0.346169	64.175	7.22206e-07	-0.29513
2	1	0	1	0	0	15.1585	0.0773287	0.0770568	0.0154344	3	-0.000291017	12	0	0.946	0.34571	64.175	1.18933e-06	-0.268653
2	1	0	1	0	0	15.1845	0.10333	0.103043	0.0170625	3	-0.000290597	12	0	0.972	0.345198	64.175	1.75818e-06	-0.242154
2	1	0	1	0	0	15.2105	0.129343	0.129056	0.019099	3	-0.000290128	12	0	0.998	0.344562	64.175	2.46484e-06	-0.215506
2	1	0	1	0	0	15.2365	0.155331	0.155076	0.021431	3	-0.000289602	12	0	1.024	0.343771	64.175	3.32343e-06	-0.188695
2	1	0	1	0	0	15.2625	0.181332	0.181006	0.023973	3	-0.000289012	12	0	1.05	0.342945	64.175	4.33926e-06	-0.161939
2	1	0	1	0	0	15.2885	0.207334	0.207001	0.026387	3	-0.000288357	12	0	1.076	0.342181	64.175	5.46213e-06	-0.13518
2	1	0	1	0	0	15.3145	0.233334	0.233006	0.0284846	3	-0.000287643	12	0	1.102	0.341422	64.175	6.63707e-06	-0.108417
2	1	0	1	0	0	15.3405	0.259327	0.259046	0.0302271	3	-0.000286879	12	0	1.128	0.340757	64.175	7.8302e-06	-0.0817106
2	1	0	1	0	0	15.3665	0.28534	0.285044	0.0316474	3	-0.000286073	12	0	1.154	0.340174	64.175	9.02091e-06	-0.0551298
2	1	0	1	0	0	15.3925	0.311332	0.311009	0.0327708	3	-0.000285235	12	0	1.18	0.339636	64.175	1.0192e-05	-0.0286269
2	1	0	1	0	0	15.4185	0.337337	0.337063	0.0335433	3	-0.000284373	12	0	1.206	0.339153	64.175	1.13062e-05	-0.00208941
2	1	0	1	0	0	15.4445	0.363331	0.363034	0.0340035	3	-0.000283495	12	0	1.232	0.338866	64.175	1.23444e-05	0.0241679
2	1	0	1	0	0	15.4705	0.389332	0.389031	0.0341493	3	-0.000282609	12	0	1.258	0.338568	64.175	1.32851e-05	0.0504623
2	1	0	1	0	0	15.4965	0.415337	0.415069	0.0340565	3	-0.000281722	12	0	1.284	0.338372	64.175	1.41358e-05	0.0766967
2	1	0	1	0	0	15.5225	0.441326	0.441061	0.0337795	3	-0.00028084	12	0	1.31	0.338226	64.175	1.48988e-05	0.102834
2	1	0	1	0	0	15.5485	0.467332	0.467067	0.0334636	3	-0.000279966	12	0	1.336	0.338147	64.175	1.56297e-05	0.128919
2	1	0	1	0	0	15.5745	0.493335	0.493027	0.0331647	3	-0.000279101	12	0	1.362	0.338074	64.175	1.63511e-05	0.154952
2	1	0	1	0	0	15.6005	0.519335	0.519047	0.0329667	3	-0.000278242	12	0	1.388	0.337972	64.175	1.71113e-05	0.181075
2	1	0	1	0	0	15.6265	0.545339	0.545078	0.0329736	3	-0.000277386	12	0	1.414	0.337841	64.175	1.79732e-05	0.207238
2	1	0	1	0	0	15.6525	0.571336	0.571082	0.0331679	3	-0.000276527	12	0	1.44	0.337588	64.175	1.89416e-05	0.233493
2	1	0	1	0	0	15.6785	0.597335	0.597072	0.0335204	3	-0.000275661	12	0	1.466	0.33744	64.175	2.00141e-05	0.259631
2	1	0	1	0	1	15.6989	0.582605	0.582366	0.0228665	3	-0.000275111	12	0	1.4864	0.339768	64.175	1.33167e-05	0.242597
2	1	0	1	0	1	15.7249	0.556594	0.556327	0.0180516	3	-0.000274587	12	0	1.5124	0.340988	64.175	1.00426e-05	0.215339
2	1	0	1	0	1	15.7509	0.530594	0.53038	0.0152045	3	-0.000274156	12	0	1.5384	0.341749	64.175	8.06414e-06	0.188632
2	1	0	1	0	1	15.7769	0.50459	0.504336	0.0131793	3	-0.000273788	12	0	1.5644	0.342402	64.175	6.64681e-06	0.161933
2	1	0	1	0	1	15.8029	0.478595	0.478301	0.0115864	3	-0.000273466	12	0	1.5904	0.342835	64.175	5.54179e-06	0.135466
2	1	0	1	0	1	15.8289	0.452607	0.452385	0.0102175	3	-0.000273183	12	0	1.6164	0.343328	64.175	4.62224e-06	0.109058
2	1	0	1	0	1	15.8532	0.428253	0.428022	0.0088413	3	-0.000272949	12	0	1.6407	0.343641	64.175	3.78427e-06	0.0843814
2	1	0	0	0	1	15.8534	0.428054	0.427794	0.00991043	3	-0.000272947	12	0	1.6409	0.342773	64.175	4.23962e-06	0.0850208