File: CVA-0p1M-KBr-nonCat-CoIII-II.mpt
EC-Lab ASCII FILE
Nb header lines : 71

Cyclic Voltammetry Advanced

Run on channel : 2 (SN 53091)
User :
CE vs. WE compliance from -10 V to 10 V
Electrode connection : standard
Potential control : Ewe
Ewe ctrl range : min = -2.50 V, max = 2.50 V
Safety Limits :
	Do not start on E overload
Acquisition started on : 02/12/2024 14:15:34.985
Technique started on : 02/12/2024 14:15:42.272
Loaded Setting File :  NONE
Saved on :
	File : 07a_CVA_50mVps_3x_3mmGC_Ar-purged_02_CVA_C02.mpr
	Directory : C:\Users\anita\Documents\EC-Lab\Data\DMM\2024\CoDIM ligand kinetics exploration\240212 2mM CoDIMBr2 0.1 M KBr, DCV and ACV\
	Host : 10.16.98.111
Device : VSP (SN 1989)
Address : USB
EC-Lab for windows v11.43 (software)
Internet server v11.40 (firmware)
Command interpretor v11.40 (firmware)
Electrode material :
Initial state :
Electrolyte :
Comments :
Electrode surface area : 0.001 cm²
Characteristic mass : 0.001 g
Equivalent Weight : 0.000 g/eq.
Density : 0.000 g/cm3
Volume (V) : 0.001 cm³
Record Ece
Text export
   Mode : Standard
   Time format : Elapsed
Cycle Definition : Charge/Discharge alternance
Ei (V)              0.000
vs.                 Eoc
ti (h:m:s)          0:00:5.0000
dti (s)             0.0000
dE/dt               50.000
dE/dt unit          mV/s
E1 (V)              -0.400
vs.                 Ref
t1 (h:m:s)          0:00:0.0000
dt1 (s)             0.0500
Step percent        50
N                   10
E range min (V)     -2.500
E range max (V)     2.500
I Range             Auto
I Range min         Unset
I Range max         Unset
I Range init        Unset
Bandwidth           5
E2 (V)              0.600
vs.                 Ref
t2 (h:m:s)          0:00:0.0000
dt2 (s)             0.0500
nc cycles           2
nr                  1
Reverse Scan        1
Ef (V)              0.000
vs.                 Eoc
tf (h:m:s)          0:00:0.0000
dtf (s)             0.1000

mode	ox/red	error	control changes	Ns changes	counter inc.	time/s	control/V	Ewe/V	<I>/mA	cycle number	(Q-Qo)/C	I Range	<Ece>/V	Rcmp/Ohm	P/W	Ewe-Ece/V
2	1	0	0	0	0	7.2874	0.452272	0.452028	1.29178e-06	1	0.0000000E+000	14	0.44292	117.476	5.83921e-10	0.00910783
2	0	0	1	0	0	7.5386	0.439712	0.439413	-7.99466e-05	1	-1.60001e-08	14	0.442913	117.476	-3.51295e-08	-0.00350046
2	0	0	0	0	0	7.7986	0.426712	0.426466	-9.14021e-05	1	-3.65973e-08	14	0.442921	117.476	-3.89799e-08	-0.0164549
2	0	0	1	0	0	8.0586	0.413712	0.41347	-0.000102143	1	-6.00508e-08	14	0.442924	117.476	-4.22329e-08	-0.0294534
2	0	0	1	0	0	8.3188	0.400702	0.400426	-0.000112686	1	-8.62631e-08	14	0.442956	117.476	-4.51222e-08	-0.0425307
2	0	0	0	0	0	8.5788	0.387702	0.387414	-0.000126859	1	-1.15606e-07	14	0.442954	117.476	-4.91468e-08	-0.0555401
2	0	0	1	0	0	8.8388	0.374702	0.374451	-0.000145201	1	-1.49083e-07	14	0.442975	117.476	-5.43706e-08	-0.0685233
2	0	0	1	0	0	9.099	0.361692	0.361422	-0.000174227	1	-1.88684e-07	14	0.442983	117.476	-6.29692e-08	-0.0815616
2	0	0	0	0	0	9.359	0.348692	0.348397	-0.000220152	1	-2.37799e-07	14	0.443001	117.476	-7.67005e-08	-0.094604
2	0	0	1	0	0	9.619	0.335692	0.335404	-0.000292719	1	-3.02131e-07	14	0.443058	117.476	-9.8179e-08	-0.107654
2	0	0	0	0	0	9.879	0.322692	0.322422	-0.000409684	1	-3.9075e-07	14	0.443127	117.476	-1.32091e-07	-0.120705
2	0	0	1	0	0	10.139	0.309692	0.309441	-0.000594372	1	-5.18104e-07	14	0.44323	117.476	-1.83923e-07	-0.133789
2	0	0	0	0	0	10.399	0.296692	0.296447	-0.000889296	1	-7.06746e-07	14	0.44339	117.476	-2.63629e-07	-0.146943
2	0	0	1	0	0	10.659	0.283692	0.283401	-0.00134963	1	-9.92014e-07	14	0.443694	117.476	-3.82487e-07	-0.160293
2	0	0	0	0	0	10.919	0.270692	0.270417	-0.00203712	1	-1.42485e-06	14	0.444094	117.476	-5.50873e-07	-0.173677
2	0	0	1	0	0	11.179	0.257692	0.257407	-0.00307743	1	-2.07991e-06	14	0.444717	117.476	-7.92153e-07	-0.18731
2	0	0	0	0	0	11.439	0.244692	0.244365	-0.00448415	1	-3.05208e-06	14	0.445562	117.476	-1.09577e-06	-0.201198
2	0	0	1	0	0	11.699	0.231692	0.231439	-0.00633625	1	-4.45255e-06	14	0.446713	117.476	-1.46645e-06	-0.215274
2	0	0	0	0	0	11.959	0.218692	0.218404	-0.00855426	1	-6.38524e-06	14	0.448134	117.476	-1.86828e-06	-0.22973
2	0	0	1	0	0	12.234	0.204942	0.204749	-0.0109012	1	-9.07061e-06	14	0.449771	117.476	-2.23202e-06	-0.245021
2	0	0	0	0	0	12.509	0.191192	0.190941	-0.0129309	1	-1.237e-05	13	0.451342	117.476	-2.46903e-06	-0.260402
2	0	0	1	0	0	12.769	0.178192	0.177924	-0.0141487	1	-1.59195e-05	13	0.452506	117.476	-2.51741e-06	-0.274582
2	0	0	0	0	0	13.029	0.165192	0.164947	-0.0146336	1	-1.96916e-05	13	0.453307	117.476	-2.41377e-06	-0.28836
2	0	0	1	0	0	13.289	0.152192	0.151898	-0.0144674	1	-2.34961e-05	13	0.453724	117.476	-2.19757e-06	-0.301827
2	0	0	0	0	0	13.5502	0.139132	0.138871	-0.0139045	1	-2.72178e-05	13	0.453861	117.476	-1.93093e-06	-0.314991
2	0	0	1	0	0	13.8121	0.126038	0.125772	-0.0131795	1	-3.07766e-05	13	0.453852	117.476	-1.65761e-06	-0.328081
2	0	0	1	0	0	14.0739	0.112949	0.112727	-0.0124456	1	-3.4141e-05	13	0.453759	117.476	-1.40295e-06	-0.341032
2	0	0	0	0	0	14.3356	0.099863	0.0995976	-0.0117745	1	-3.73197e-05	13	0.453657	117.476	-1.17271e-06	-0.354059
2	0	0	0	0	0	14.597	0.0867925	0.0865718	-0.0111955	1	-4.03313e-05	13	0.453582	117.476	-9.69212e-07	-0.36701
2	0	0	1	0	0	14.8582	0.0737325	0.0735216	-0.0106999	1	-4.32003e-05	13	0.453479	117.476	-7.86677e-07	-0.379958
2	0	0	0	0	0	15.1194	0.0606725	0.0604459	-0.0102745	1	-4.59492e-05	13	0.453413	117.476	-6.21054e-07	-0.392967
2	0	0	0	0	0	15.3804	0.0476225	0.0473506	-0.00990545	1	-4.85927e-05	13	0.453376	117.476	-4.69028e-07	-0.406026
2	0	0	1	0	0	15.6412	0.0345825	0.0342843	-0.00958359	1	-5.11448e-05	13	0.453358	117.476	-3.28567e-07	-0.419074
2	0	0	0	0	0	15.902	0.0215425	0.0212562	-0.00929603	1	-5.36177e-05	13	0.453337	117.476	-1.97598e-07	-0.432081
2	0	0	1	0	0	16.1627	0.00850862	0.00823005	-0.00903259	1	-5.60179e-05	13	0.453291	117.476	-7.43387e-08	-0.445061
2	0	0	1	0	0	16.4234	-0.00452751	-0.00488017	-0.00878958	1	-5.83527e-05	13	0.453314	117.476	4.28946e-08	-0.458194
2	0	0	1	0	0	16.684	-0.0175575	-0.0179121	-0.00856448	1	-6.06255e-05	13	0.453303	117.476	1.53408e-07	-0.471215
2	0	0	1	0	0	16.9446	-0.0305875	-0.0309419	-0.00835229	1	-6.28412e-05	13	0.4533	117.476	2.58435e-07	-0.484242
2	0	0	1	0	0	17.2052	-0.0436175	-0.0439716	-0.00815289	1	-6.50034e-05	13	0.453307	117.476	3.58496e-07	-0.497278
2	0	0	1	0	0	17.4657	-0.0566414	-0.0569884	-0.00796275	1	-6.71143e-05	13	0.453311	117.476	4.53784e-07	-0.5103
2	0	0	0	0	0	17.7262	-0.0696675	-0.0699703	-0.00778756	1	-6.91773e-05	13	0.453321	117.476	5.44898e-07	-0.523292
2	0	0	0	0	0	17.9868	-0.082697	-0.083008	-0.00761828	1	-7.11962e-05	13	0.453338	117.476	6.32378e-07	-0.536346
2	0	0	1	0	0	18.2472	-0.0957175	-0.0960389	-0.00745667	1	-7.31708e-05	13	0.453341	117.476	7.1613e-07	-0.54938
2	0	0	0	0	0	18.5076	-0.108738	-0.109057	-0.00730646	1	-7.51049e-05	13	0.45335	117.476	7.96818e-07	-0.562407
2	0	0	0	0	0	18.7682	-0.121767	-0.122089	-0.00716165	1	-7.7002e-05	13	0.453374	117.476	8.74358e-07	-0.575463
2	0	0	0	0	0	19.0284	-0.134778	-0.135089	-0.00702759	1	-7.88598e-05	13	0.453382	117.476	9.49349e-07	-0.58847
2	0	0	1	0	0	19.2889	-0.147801	-0.148101	-0.00689573	1	-8.06852e-05	13	0.45341	117.476	1.02127e-06	-0.601512
2	0	0	0	0	0	19.5492	-0.160818	-0.161147	-0.00677573	1	-8.24763e-05	13	0.45342	117.476	1.09189e-06	-0.614567
2	0	0	1	0	0	19.8096	-0.173838	-0.174145	-0.00665888	1	-8.42369e-05	13	0.453442	117.476	1.15961e-06	-0.627587
2	0	0	0	0	0	20.07	-0.186858	-0.187174	-0.00654706	1	-8.59678e-05	13	0.45347	117.476	1.22544e-06	-0.640644
2	0	0	1	0	0	20.3304	-0.199878	-0.200202	-0.00644244	1	-8.76707e-05	13	0.453489	117.476	1.28979e-06	-0.653691
2	0	0	0	0	0	20.5908	-0.212898	-0.213217	-0.00634227	1	-8.93472e-05	13	0.453522	117.476	1.35228e-06	-0.666739
2	0	0	0	0	0	20.851	-0.225908	-0.226185	-0.00625242	1	-9.09972e-05	13	0.453543	117.476	1.41421e-06	-0.679729
2	0	0	1	0	0	21.1114	-0.238928	-0.239215	-0.00616021	1	-9.26248e-05	13	0.453556	117.476	1.47361e-06	-0.692771
2	0	0	1	0	0	21.3716	-0.251938	-0.252218	-0.00607621	1	-9.42286e-05	13	0.453596	117.476	1.53253e-06	-0.705814
2	0	0	0	0	0	21.632	-0.264958	-0.265252	-0.00599616	1	-9.58124e-05	13	0.453633	117.476	1.59049e-06	-0.718884
2	0	0	0	0	0	21.8922	-0.277968	-0.278248	-0.00592191	1	-9.7375e-05	13	0.453652	117.476	1.64776e-06	-0.7319
2	0	0	1	0	0	22.1525	-0.290982	-0.291276	-0.00585183	1	-9.89195e-05	13	0.453699	117.476	1.7045e-06	-0.744975
2	0	0	1	0	0	22.4128	-0.303998	-0.304264	-0.00578588	1	-0.000100446	13	0.45372	117.476	1.76043e-06	-0.757984
2	0	0	1	0	0	22.673	-0.317008	-0.317318	-0.0057249	1	-0.000101956	13	0.453785	117.476	1.81661e-06	-0.771103
2	0	0	1	0	0	22.9332	-0.330018	-0.330327	-0.00566723	1	-0.00010345	13	0.453824	117.476	1.87204e-06	-0.784151
2	0	0	1	0	0	23.1934	-0.343028	-0.34331	-0.00561299	1	-0.00010493	13	0.453858	117.476	1.927e-06	-0.797167
2	0	0	1	0	0	23.4536	-0.356038	-0.356322	-0.00556395	1	-0.000106397	13	0.453899	117.476	1.98256e-06	-0.810221
2	0	0	1	0	0	23.7138	-0.369048	-0.369361	-0.00551824	1	-0.00010785	13	0.453946	117.476	2.03822e-06	-0.823307
2	0	0	1	0	0	23.974	-0.382058	-0.382331	-0.00547152	1	-0.000109292	13	0.453999	117.476	2.09193e-06	-0.83633
2	0	0	1	0	0	24.2343	-0.395071	-0.395385	-0.00542686	1	-0.000110722	13	0.454028	117.476	2.1457e-06	-0.849413
2	0	0	1	0	0	24.464	-0.393458	-0.39375	-0.00522682	1	-0.000111949	13	0.453965	117.476	2.05806e-06	-0.847716
2	0	0	0	0	0	24.724	-0.380458	-0.380726	-0.0050747	1	-0.000113275	13	0.453951	117.476	1.93207e-06	-0.834677
2	0	0	1	0	0	24.984	-0.367458	-0.367748	-0.00496168	1	-0.000114568	13	0.453934	117.476	1.82465e-06	-0.821682
2	0	0	0	0	0	25.244	-0.354458	-0.354768	-0.00486596	1	-0.000115834	13	0.453925	117.476	1.72629e-06	-0.808693
2	0	0	1	0	0	25.504	-0.341458	-0.341705	-0.00478168	1	-0.000117077	13	0.45393	117.476	1.63392e-06	-0.795634
2	0	0	0	0	0	25.764	-0.328458	-0.328758	-0.00470109	1	-0.000118298	13	0.453938	117.476	1.54552e-06	-0.782696
2	0	0	1	0	0	26.024	-0.315458	-0.31576	-0.00462863	1	-0.0001195	13	0.45395	117.476	1.46154e-06	-0.76971
2	0	0	0	0	0	26.284	-0.302458	-0.30276	-0.00456191	1	-0.000120683	13	0.453944	117.476	1.38117e-06	-0.756704
2	0	0	1	0	0	26.574	-0.287958	-0.288196	-0.00443783	1	-0.000121983	14	0.453926	117.476	1.27897e-06	-0.742122
2	0	0	0	0	0	26.834	-0.274958	-0.275225	-0.00437633	1	-0.00012313	14	0.453959	117.476	1.20448e-06	-0.729184
2	0	0	1	0	0	27.094	-0.261958	-0.262202	-0.00431518	1	-0.000124261	14	0.453956	117.476	1.13145e-06	-0.716158
2	0	0	0	0	0	27.354	-0.248958	-0.249227	-0.00425716	1	-0.000125377	14	0.453983	117.476	1.061e-06	-0.70321
2	0	0	1	0	0	27.614	-0.235958	-0.236237	-0.00419999	1	-0.000126478	14	0.453986	117.476	9.92195e-07	-0.690223
2	0	0	0	0	0	27.874	-0.222958	-0.223204	-0.00414526	1	-0.000127564	14	0.454005	117.476	9.25238e-07	-0.677209
2	0	0	1	0	0	28.134	-0.209958	-0.210211	-0.00409142	1	-0.000128636	14	0.45401	117.476	8.60063e-07	-0.664221
2	0	0	0	0	0	28.394	-0.196958	-0.19723	-0.00403757	1	-0.000129694	14	0.454032	117.476	7.96329e-07	-0.651262
2	0	0	1	0	0	28.654	-0.183958	-0.184238	-0.00398469	1	-0.000130739	14	0.454025	117.476	7.34133e-07	-0.638263
2	0	0	0	0	0	28.914	-0.170958	-0.171226	-0.00393204	1	-0.000131769	14	0.454042	117.476	6.73268e-07	-0.625268
2	0	0	1	0	0	29.174	-0.157958	-0.15826	-0.00387745	1	-0.000132786	14	0.454059	117.476	6.13645e-07	-0.612319
2	0	0	0	0	0	29.434	-0.144958	-0.145292	-0.003825	1	-0.000133789	14	0.454052	117.476	5.55741e-07	-0.599344
2	0	0	1	0	0	29.694	-0.131958	-0.13226	-0.00377115	1	-0.000134778	14	0.454058	117.476	4.98775e-07	-0.586318
2	0	0	0	0	0	29.954	-0.118958	-0.119277	-0.00371727	1	-0.000135754	14	0.454087	117.476	4.43383e-07	-0.573363
2	0	0	1	0	0	30.214	-0.105958	-0.106223	-0.00366356	1	-0.000136715	14	0.454086	117.476	3.89154e-07	-0.560309
2	0	0	1	0	0	30.4742	-0.0929482	-0.093269	-0.00360767	1	-0.000137662	14	0.454088	117.476	3.36484e-07	-0.547357
2	0	0	0	0	0	30.7342	-0.0799477	-0.0802379	-0.00355213	1	-0.000138595	14	0.454098	117.476	2.85016e-07	-0.534336
2	0	0	1	0	0	30.9942	-0.0669477	-0.0672095	-0.00349548	1	-0.000139512	14	0.454107	117.476	2.3493e-07	-0.521317
2	0	0	0	0	0	31.2542	-0.0539477	-0.0542065	-0.00343797	1	-0.000140415	14	0.454097	117.476	1.86361e-07	-0.508303
2	0	0	1	0	0	31.5142	-0.0409477	-0.0412513	-0.00337717	1	-0.000141303	14	0.454093	117.476	1.39313e-07	-0.495344
2	0	0	0	0	0	31.7742	-0.0279477	-0.0282293	-0.00331698	1	-0.000142174	14	0.454098	117.476	9.36358e-08	-0.482328
2	0	0	1	0	0	32.0342	-0.0149477	-0.0152136	-0.00325397	1	-0.00014303	14	0.45409	117.476	4.95045e-08	-0.469304
2	0	0	0	0	0	32.2942	-0.00194768	-0.00225726	-0.00318916	1	-0.000143869	14	0.454084	117.476	7.19878e-09	-0.456341
2	0	0	1	0	0	32.5542	0.0110523	0.0108125	-0.00312025	1	-0.000144691	14	0.454083	117.476	-3.37376e-08	-0.44327
2	0	0	0	0	0	32.8142	0.0240523	0.0237995	-0.00304633	1	-0.000145494	14	0.454071	117.476	-7.25012e-08	-0.430272
2	0	0	1	0	0	33.0742	0.0370523	0.0368036	-0.0029647	1	-0.000146277	14	0.454057	117.476	-1.09111e-07	-0.417253
2	0	0	0	0	0	33.3342	0.0500523	0.0498267	-0.00286903	1	-0.000147037	14	0.454032	117.476	-1.42954e-07	-0.404206
2	0	0	1	0	0	33.5942	0.0630523	0.0628127	-0.00275424	1	-0.00014777	14	0.453972	117.476	-1.73001e-07	-0.39116
2	0	0	0	0	0	33.8542	0.0760523	0.0758358	-0.00260689	1	-0.000148469	14	0.453899	117.476	-1.97695e-07	-0.378064
2	0	0	1	0	0	34.1142	0.0890523	0.0887825	-0.00240966	1	-0.000149124	14	0.453827	117.476	-2.13936e-07	-0.365044
2	0	0	0	0	0	34.3742	0.102052	0.101819	-0.00212978	1	-0.000149717	14	0.453685	117.476	-2.16852e-07	-0.351866
2	0	0	1	0	0	34.6342	0.115052	0.114844	-0.00173589	1	-0.000150224	14	0.453473	117.476	-1.99357e-07	-0.338629
2	0	0	0	0	0	34.8942	0.128052	0.12786	-0.00115518	1	-0.000150606	14	0.453175	117.476	-1.47701e-07	-0.325315
2	0	0	1	0	0	35.1542	0.141052	0.140839	-0.000320085	1	-0.000150808	14	0.452685	117.476	-4.50804e-08	-0.311846
2	1	0	0	0	0	35.4142	0.154052	0.153801	0.000802026	1	-0.000150755	14	0.452029	117.476	1.23352e-07	-0.298228
2	1	0	1	0	0	35.6742	0.167052	0.166818	0.00231205	1	-0.000150361	14	0.451124	117.476	3.85693e-07	-0.284306
2	1	0	0	0	0	35.9342	0.180052	0.179814	0.00415542	1	-0.00014953	14	0.449973	117.476	7.47202e-07	-0.270159
2	1	0	1	0	0	36.1942	0.193052	0.192835	0.00615722	1	-0.000148193	14	0.448656	117.476	1.18733e-06	-0.255821
2	1	0	0	0	0	36.4542	0.206052	0.205809	0.00810351	1	-0.000146332	14	0.447293	117.476	1.66778e-06	-0.241484
2	1	0	1	0	0	36.7142	0.219052	0.218826	0.00972812	1	-0.000144002	14	0.446028	117.476	2.12876e-06	-0.227202
2	1	0	1	0	0	36.9749	0.232086	0.231844	0.0108176	1	-0.000141314	14	0.44498	117.476	2.508e-06	-0.213136
2	1	0	1	0	0	37.2654	0.246612	0.246418	0.011205	1	-0.000138096	13	0.444262	117.476	2.76111e-06	-0.197843
2	1	0	1	0	0	37.5384	0.260258	0.260014	0.0110805	1	-0.000135033	13	0.443868	117.476	2.88109e-06	-0.183854
2	1	0	1	0	0	37.8124	0.273956	0.273663	0.0105672	1	-0.000132051	13	0.443742	117.476	2.89184e-06	-0.17008
2	1	0	1	0	0	38.0865	0.287662	0.28736	0.00987512	1	-0.000129237	13	0.443772	117.476	2.83771e-06	-0.156412
2	1	0	1	0	0	38.3601	0.301341	0.301115	0.00913499	1	-0.000126625	13	0.443887	117.476	2.75069e-06	-0.142772
2	1	0	1	0	0	38.6343	0.315052	0.314814	0.00841987	1	-0.000124208	13	0.444072	117.476	2.65069e-06	-0.129258
2	1	0	1	0	0	38.9088	0.328775	0.328512	0.00776735	1	-0.000121977	13	0.44424	117.476	2.55167e-06	-0.115728
2	1	0	1	0	0	39.1844	0.342555	0.342326	0.00718289	1	-0.000119908	13	0.444414	117.476	2.45889e-06	-0.102088
2	1	0	1	0	0	39.4607	0.356372	0.356051	0.00666562	1	-0.000117986	13	0.444587	117.476	2.3733e-06	-0.0885361
2	1	0	1	0	0	39.737	0.370185	0.369927	0.00621534	1	-0.000116196	13	0.444708	117.476	2.29923e-06	-0.0747803
2	1	0	1	0	0	40.0144	0.384056	0.383816	0.00582261	1	-0.000114516	13	0.44483	117.476	2.23481e-06	-0.0610143
2	1	0	1	0	0	40.2929	0.397981	0.397737	0.00547753	1	-0.000112932	13	0.444952	117.476	2.17862e-06	-0.0472148
2	1	0	1	0	0	40.5733	0.411997	0.411757	0.00516845	1	-0.000111429	13	0.445035	117.476	2.12815e-06	-0.0332778
2	1	0	1	0	0	40.8587	0.426267	0.426022	0.00489222	1	-0.000109982	13	0.445113	117.476	2.08419e-06	-0.0190912
2	1	0	1	0	0	41.1439	0.440527	0.440315	0.00463599	1	-0.000108612	13	0.445191	117.476	2.0413e-06	-0.0048759
2	1	0	1	0	0	41.4446	0.455562	0.455407	0.00443158	1	-0.00010724	13	0.445222	117.476	2.01817e-06	0.0101845
2	1	0	1	0	0	41.7443	0.470547	0.470331	0.00423777	1	-0.000105941	14	0.445288	117.476	1.99315e-06	0.025043
2	1	0	1	0	0	42.0265	0.484657	0.484431	0.00405378	1	-0.000104774	14	0.445335	117.476	1.96378e-06	0.0390955
2	1	0	1	0	0	42.3079	0.498727	0.49854	0.0038859	1	-0.000103659	14	0.445371	117.476	1.93728e-06	0.053169
2	1	0	1	0	0	42.5767	0.512167	0.511929	0.0037405	1	-0.000102637	14	0.445404	117.476	1.91487e-06	0.0665254
2	1	0	1	0	0	42.8449	0.525577	0.5254	0.00360222	1	-0.000101654	14	0.445439	117.476	1.89261e-06	0.0799617
2	1	0	1	0	0	43.1097	0.538817	0.538615	0.00348334	1	-0.000100717	14	0.445461	117.476	1.87618e-06	0.0931544
2	1	0	1	0	0	43.378	0.552232	0.552048	0.00337855	1	-9.97993e-05	14	0.445483	117.476	1.86512e-06	0.106565
2	1	0	1	0	0	43.6437	0.565517	0.565312	0.00327359	1	-9.89178e-05	14	0.445496	117.476	1.8506e-06	0.119817
2	1	0	1	0	0	43.9119	0.578927	0.578709	0.00318252	1	-9.80537e-05	14	0.445497	117.476	1.84175e-06	0.133212
2	1	0	1	0	0	44.1783	0.592247	0.592049	0.00310155	1	-9.72182e-05	14	0.445505	117.476	1.83627e-06	0.146544
2	1	0	0	0	1	44.4248	0.595412	0.595146	0.00279187	1	-9.64812e-05	14	0.445609	117.476	1.66157e-06	0.149537
2	1	0	1	0	1	44.6848	0.582412	0.582129	0.00263018	1	-9.57765e-05	14	0.445692	117.476	1.5311e-06	0.136437
2	1	0	0	0	1	44.9448	0.569412	0.56915	0.00251357	1	-9.51067e-05	14	0.445732	117.476	1.4306e-06	0.123418
2	1	0	1	0	1	45.2048	0.556412	0.556138	0.00241473	1	-9.44646e-05	14	0.445777	117.476	1.34292e-06	0.110361
2	1	0	0	0	1	45.4648	0.543412	0.543202	0.00232718	1	-9.38467e-05	14	0.445804	117.476	1.26413e-06	0.0973976
2	1	0	1	0	1	45.7248	0.530412	0.530152	0.00224617	1	-9.32506e-05	14	0.445816	117.476	1.19081e-06	0.0843364
2	1	0	0	0	1	45.9848	0.517412	0.517152	0.00217186	1	-9.26746e-05	14	0.445832	117.476	1.12318e-06	0.0713197
2	1	0	1	0	1	46.2448	0.504412	0.504115	0.00210056	1	-9.21175e-05	14	0.445856	117.476	1.05892e-06	0.0582582
2	1	0	0	0	1	46.5048	0.491412	0.491131	0.00203286	1	-9.15783e-05	14	0.44586	117.476	9.98402e-07	0.0452712
2	1	0	1	0	1	46.7648	0.478412	0.478127	0.00196926	1	-9.10563e-05	14	0.445895	117.476	9.41555e-07	0.0322314
2	1	0	0	0	1	47.0248	0.465412	0.465167	0.00190585	1	-9.05508e-05	14	0.445898	117.476	8.86538e-07	0.0192696
2	1	0	1	0	1	47.2818	0.452562	0.452314	0.00184391	1	-9.00672e-05	14	0.445903	117.476	8.34028e-07	0.00641093
2	1	0	0	0	1	47.5208	0.440612	0.440337	0.00178772	2	-8.96314e-05	14	0.445921	117.476	7.87199e-07	-0.00558457
2	1	0	1	0	1	47.7808	0.427612	0.42738	0.00172743	2	-8.91725e-05	14	0.445942	117.476	7.38271e-07	-0.0185613
2	1	0	0	0	1	48.0408	0.414612	0.414351	0.0016695	2	-8.87291e-05	14	0.445952	117.476	6.91758e-07	-0.0316007
2	1	0	1	0	1	48.3008	0.401612	0.401333	0.00160966	2	-8.8301e-05	14	0.445975	117.476	6.46012e-07	-0.0446424
2	1	0	0	0	1	48.5608	0.388612	0.388388	0.00155057	2	-8.78883e-05	14	0.445992	117.476	6.02222e-07	-0.0576031
2	1	0	0	0	1	48.821	0.375602	0.375354	0.00148775	2	-8.74914e-05	14	0.446013	117.476	5.58431e-07	-0.070659
2	1	0	1	0	1	49.081	0.362602	0.362324	0.00141526	2	-8.71122e-05	14	0.446029	117.476	5.12783e-07	-0.0837048
2	1	0	0	0	1	49.341	0.349602	0.349347	0.00133005	2	-8.67531e-05	14	0.446058	117.476	4.64649e-07	-0.0967115
2	1	0	1	0	1	49.601	0.336602	0.336333	0.00121898	2	-8.64195e-05	14	0.446111	117.476	4.09985e-07	-0.109778
2	1	0	0	0	1	49.861	0.323602	0.323351	0.00106863	2	-8.61195e-05	14	0.446191	117.476	3.45543e-07	-0.12284
2	1	0	1	0	1	50.121	0.310602	0.310303	0.00085313	2	-8.58666e-05	14	0.446298	117.476	2.64729e-07	-0.135996
2	1	0	0	0	1	50.381	0.297602	0.297353	0.000536205	2	-8.5682e-05	14	0.446466	117.476	1.59442e-07	-0.149113
2	1	0	1	0	1	50.641	0.284602	0.28432	6.18478e-05	2	-8.56001e-05	14	0.446735	117.476	1.75845e-08	-0.162416
2	0	0	0	0	1	50.901	0.271602	0.271295	-0.000644381	2	-8.56687e-05	14	0.447142	117.476	-1.74817e-07	-0.175847
2	0	0	1	0	1	51.161	0.258602	0.258342	-0.00165842	2	-8.59595e-05	14	0.447727	117.476	-4.28438e-07	-0.189385
2	0	0	0	0	1	51.421	0.245602	0.245337	-0.00306648	2	-8.65647e-05	14	0.44856	117.476	-7.52323e-07	-0.203222
2	0	0	1	0	1	51.681	0.232602	0.232333	-0.00494622	2	-8.75955e-05	14	0.449704	117.476	-1.14917e-06	-0.217371
2	0	0	0	0	1	51.941	0.219602	0.219314	-0.00711116	2	-8.91557e-05	14	0.451077	117.476	-1.55958e-06	-0.231763
2	0	0	1	0	1	52.201	0.206602	0.206308	-0.0094133	2	-9.13048e-05	14	0.452631	117.476	-1.94204e-06	-0.246323
2	0	0	0	0	1	52.491	0.192102	0.19187	-0.0115147	2	-9.43592e-05	13	0.454221	117.476	-2.20932e-06	-0.262351
2	0	0	1	0	1	52.751	0.179102	0.178835	-0.012823	2	-9.75495e-05	13	0.455427	117.476	-2.2932e-06	-0.276592
2	0	0	0	0	1	53.011	0.166102	0.165855	-0.0132711	2	-0.000100966	13	0.456208	117.476	-2.20108e-06	-0.290353
2	0	0	1	0	1	53.271	0.153102	0.152874	-0.0131188	2	-0.000104418	13	0.456611	117.476	-2.00552e-06	-0.303736
2	0	0	1	0	1	53.5316	0.140072	0.139814	-0.012568	2	-0.000107782	13	0.456725	117.476	-1.75718e-06	-0.316911
2	0	0	1	0	1	53.7934	0.126982	0.126738	-0.0118493	2	-0.00011099	13	0.456705	117.476	-1.50176e-06	-0.329967
2	0	0	1	0	1	54.0551	0.113899	0.113671	-0.0111264	2	-0.000114006	13	0.456586	117.476	-1.26475e-06	-0.342915
2	0	0	0	0	1	54.3168	0.100812	0.100529	-0.0104596	2	-0.00011684	13	0.456475	117.476	-1.05149e-06	-0.355946
2	0	0	0	0	1	54.5782	0.0877425	0.0874986	-0.00989214	2	-0.00011951	13	0.45636	117.476	-8.65548e-07	-0.368862
2	0	0	1	0	1	54.8395	0.0746786	0.0744496	-0.00940593	2	-0.00012204	13	0.456265	117.476	-7.00267e-07	-0.381815
2	0	0	1	0	1	55.1005	0.0616286	0.0613895	-0.00899166	2	-0.000124452	13	0.456184	117.476	-5.51994e-07	-0.394794
2	0	0	1	0	1	55.3615	0.0485786	0.0483081	-0.00863929	2	-0.000126764	13	0.456138	117.476	-4.17347e-07	-0.407829
2	0	0	1	0	1	55.6223	0.0355386	0.0352846	-0.00833268	2	-0.000128988	13	0.456111	117.476	-2.94015e-07	-0.420826
2	0	0	1	0	1	55.8831	0.0224986	0.0222529	-0.00806168	2	-0.000131137	13	0.456069	117.476	-1.79396e-07	-0.433816
2	0	0	1	0	1	56.1437	0.00946863	0.00923234	-0.00781706	2	-0.000133217	13	0.45605	117.476	-7.21698e-08	-0.446818
2	0	0	0	0	1	56.4044	-0.00356751	-0.00391902	-0.00759686	2	-0.000135238	13	0.456036	117.476	2.97722e-08	-0.459955
2	0	0	0	0	1	56.665	-0.0165975	-0.0169615	-0.00738892	2	-0.000137202	13	0.456029	117.476	1.25327e-07	-0.47299
2	0	0	1	0	1	56.9254	-0.0296175	-0.0299855	-0.00719768	2	-0.000139113	13	0.456019	117.476	2.15826e-07	-0.486005
2	0	0	1	0	1	57.186	-0.0426475	-0.0429899	-0.00701731	2	-0.000140976	13	0.456021	117.476	3.01673e-07	-0.499011
2	0	0	1	0	1	57.4466	-0.0556775	-0.0560069	-0.00684371	2	-0.000142794	13	0.456014	117.476	3.83295e-07	-0.512021
2	0	0	0	0	1	57.707	-0.0686975	-0.0689949	-0.00668239	2	-0.000144567	13	0.456007	117.476	4.61051e-07	-0.525002
2	0	0	1	0	1	57.9674	-0.0817175	-0.0820423	-0.00653033	2	-0.000146299	13	0.456017	117.476	5.35763e-07	-0.538059
2	0	0	0	0	1	58.2278	-0.0947375	-0.0950673	-0.00638475	2	-0.000147992	13	0.456044	117.476	6.06982e-07	-0.551111
2	0	0	0	0	1	58.4884	-0.107768	-0.108118	-0.00624777	2	-0.00014965	13	0.456029	117.476	6.75498e-07	-0.564147
2	0	0	1	0	1	58.7488	-0.120788	-0.121119	-0.00611519	2	-0.000151271	13	0.45603	117.476	7.40665e-07	-0.577149
2	0	0	1	0	1	59.0091	-0.133801	-0.13413	-0.00599407	2	-0.000152859	13	0.45605	117.476	8.03986e-07	-0.59018
2	0	0	0	0	1	59.2694	-0.146818	-0.147154	-0.00587981	2	-0.000154416	13	0.456057	117.476	8.65236e-07	-0.603211
2	0	0	1	0	1	59.5298	-0.159838	-0.160187	-0.00576659	2	-0.000155944	13	0.456069	117.476	9.23736e-07	-0.616256
2	0	0	0	0	1	59.7902	-0.172858	-0.173184	-0.00566212	2	-0.000157444	13	0.456083	117.476	9.80589e-07	-0.629267
2	0	0	1	0	1	60.0506	-0.185878	-0.186141	-0.00556361	2	-0.000158917	13	0.456114	117.476	1.03562e-06	-0.642255
2	0	0	1	0	1	60.3108	-0.198888	-0.199147	-0.00546794	2	-0.000160365	13	0.456129	117.476	1.08892e-06	-0.655276
2	0	0	0	0	1	60.5712	-0.211908	-0.212156	-0.00538144	2	-0.00016179	13	0.456118	117.476	1.1417e-06	-0.668274
2	0	0	0	0	1	60.8314	-0.224918	-0.225173	-0.0053006	2	-0.000163191	13	0.456149	117.476	1.19355e-06	-0.681322
2	0	0	1	0	1	61.0918	-0.237938	-0.238241	-0.00522235	2	-0.000164574	13	0.456167	117.476	1.24418e-06	-0.694408
2	0	0	1	0	1	61.352	-0.250948	-0.251286	-0.0051511	2	-0.000165935	13	0.456209	117.476	1.2944e-06	-0.707496
2	0	0	1	0	1	61.6123	-0.263962	-0.26427	-0.00508073	2	-0.000167279	13	0.456229	117.476	1.34268e-06	-0.720499
2	0	0	0	0	1	61.8726	-0.276978	-0.277263	-0.00501712	2	-0.000168605	13	0.45625	117.476	1.39106e-06	-0.733512
2	0	0	0	0	1	62.1328	-0.289988	-0.290256	-0.00495559	2	-0.000169915	13	0.45629	117.476	1.43839e-06	-0.746546
2	0	0	0	0	1	62.393	-0.302998	-0.303262	-0.00490093	2	-0.000171209	13	0.456309	117.476	1.48627e-06	-0.759571
2	0	0	0	0	1	62.6532	-0.316008	-0.316324	-0.00485062	2	-0.00017249	13	0.456349	117.476	1.53437e-06	-0.772673
2	0	0	0	0	1	62.9134	-0.329018	-0.329284	-0.00480365	2	-0.000173758	13	0.456372	117.476	1.58177e-06	-0.785656
2	0	0	0	0	1	63.1736	-0.342028	-0.342312	-0.00476001	2	-0.000175014	13	0.456421	117.476	1.62941e-06	-0.798733
2	0	0	0	0	1	63.4338	-0.355038	-0.355308	-0.00471766	2	-0.00017626	13	0.456456	117.476	1.67622e-06	-0.811764
2	0	0	0	0	1	63.694	-0.368048	-0.368304	-0.00468191	2	-0.000177495	13	0.456482	117.476	1.72437e-06	-0.824786
2	0	0	0	0	1	63.9542	-0.381058	-0.3813	-0.00464676	2	-0.000178721	13	0.456521	117.476	1.77181e-06	-0.837821
2	0	0	0	0	1	64.2144	-0.394068	-0.394365	-0.00461281	2	-0.000179938	13	0.45656	117.476	1.81913e-06	-0.850924
2	0	0	1	0	1	64.474	-0.392968	-0.393245	-0.00436473	2	-0.000181115	14	0.45648	117.476	1.71641e-06	-0.849724
2	0	0	0	0	1	64.734	-0.379968	-0.380213	-0.00423286	2	-0.000182233	14	0.456458	117.476	1.60939e-06	-0.836671
2	0	0	1	0	1	64.994	-0.366968	-0.367206	-0.00413559	2	-0.000183322	14	0.456434	117.476	1.51861e-06	-0.82364
2	0	0	0	0	1	65.254	-0.353968	-0.354187	-0.00405294	2	-0.000184388	14	0.456441	117.476	1.4355e-06	-0.810628
2	0	0	1	0	1	65.514	-0.340968	-0.341231	-0.00398016	2	-0.000185434	14	0.456432	117.476	1.35815e-06	-0.797663
2	0	0	0	0	1	65.774	-0.327968	-0.328239	-0.00391444	2	-0.000186461	14	0.456433	117.476	1.28487e-06	-0.784672
2	0	0	1	0	1	66.034	-0.314968	-0.3152	-0.00385283	2	-0.000187472	14	0.456431	117.476	1.21441e-06	-0.771632
2	0	0	0	0	1	66.294	-0.301968	-0.302238	-0.00379488	2	-0.000188468	14	0.456453	117.476	1.14696e-06	-0.75869
2	0	0	1	0	1	66.554	-0.288968	-0.289204	-0.00373973	2	-0.000189449	14	0.456451	117.476	1.08154e-06	-0.745655
2	0	0	0	0	1	66.814	-0.275968	-0.276204	-0.00368699	2	-0.000190416	14	0.45645	117.476	1.01836e-06	-0.732655
2	0	0	1	0	1	67.074	-0.262968	-0.263225	-0.00363725	2	-0.00019137	14	0.456463	117.476	9.57413e-07	-0.719687
2	0	0	0	0	1	67.334	-0.249968	-0.250222	-0.00358876	2	-0.00019231	14	0.456461	117.476	8.97984e-07	-0.706683
2	0	0	1	0	1	67.594	-0.236968	-0.237187	-0.00354272	2	-0.000193239	14	0.456492	117.476	8.40287e-07	-0.693679
2	0	0	0	0	1	67.854	-0.223968	-0.224201	-0.00349624	2	-0.000194155	14	0.456483	117.476	7.8386e-07	-0.680684
2	0	0	1	0	1	68.114	-0.210968	-0.211181	-0.00345124	2	-0.00019506	14	0.456486	117.476	7.28836e-07	-0.667667
2	0	0	0	0	1	68.374	-0.197968	-0.198204	-0.00340676	2	-0.000195953	14	0.456507	117.476	6.75235e-07	-0.654711
2	0	0	1	0	1	68.634	-0.184968	-0.18525	-0.00336278	2	-0.000196834	14	0.456513	117.476	6.22956e-07	-0.641763
2	0	0	0	0	1	68.894	-0.171968	-0.172216	-0.00331946	2	-0.000197705	14	0.456519	117.476	5.71662e-07	-0.628734
2	0	0	1	0	1	69.154	-0.158968	-0.159216	-0.00327612	2	-0.000198564	14	0.456534	117.476	5.2161e-07	-0.61575
2	0	0	0	0	1	69.414	-0.145968	-0.146232	-0.00323239	2	-0.000199411	14	0.456541	117.476	4.72679e-07	-0.602773
2	0	0	1	0	1	69.674	-0.132968	-0.133299	-0.00318732	2	-0.000200247	14	0.456545	117.476	4.24865e-07	-0.589844
2	0	0	0	0	1	69.934	-0.119968	-0.120233	-0.00314314	2	-0.000201072	14	0.456544	117.476	3.7791e-07	-0.576778
2	0	0	1	0	1	70.194	-0.106968	-0.107256	-0.00309744	2	-0.000201884	14	0.456551	117.476	3.32219e-07	-0.563806
2	0	0	0	0	1	70.454	-0.0939677	-0.0942465	-0.00305047	2	-0.000202685	14	0.456554	117.476	2.87496e-07	-0.5508
2	0	0	1	0	1	70.714	-0.0809677	-0.0812913	-0.00300254	2	-0.000203474	14	0.456577	117.476	2.44081e-07	-0.537868
2	0	0	0	0	1	70.974	-0.0679677	-0.0682586	-0.00295378	2	-0.00020425	14	0.456564	117.476	2.01621e-07	-0.524823
2	0	0	1	0	1	71.234	-0.0549677	-0.0552397	-0.00290426	2	-0.000205013	14	0.456569	117.476	1.60431e-07	-0.511809
2	0	0	0	0	1	71.494	-0.0419677	-0.0422516	-0.00285507	2	-0.000205764	14	0.456545	117.476	1.20631e-07	-0.498796
2	0	0	1	0	1	71.754	-0.0289677	-0.0292487	-0.00280253	2	-0.000206501	14	0.456566	117.476	8.19702e-08	-0.485815
2	0	0	0	0	1	72.014	-0.0159677	-0.0162309	-0.00274846	2	-0.000207224	14	0.456556	117.476	4.46099e-08	-0.472786
2	0	0	1	0	1	72.274	-0.00296768	-0.00328091	-0.00269244	2	-0.000207932	14	0.456535	117.476	8.83367e-09	-0.459816
2	0	0	0	0	1	72.534	0.0100323	0.00977505	-0.00263112	2	-0.000208626	14	0.456526	117.476	-2.57193e-08	-0.446751
2	0	0	1	0	1	72.794	0.0230323	0.0228119	-0.0025665	2	-0.000209303	14	0.456527	117.476	-5.85467e-08	-0.433715
2	0	0	0	0	1	73.054	0.0360323	0.0358223	-0.00249415	2	-0.000209962	14	0.456481	117.476	-8.93462e-08	-0.420658
2	0	0	1	0	1	73.314	0.0490323	0.048786	-0.00240944	2	-0.000210602	14	0.456464	117.476	-1.17547e-07	-0.407678
2	0	0	0	0	1	73.574	0.0620323	0.0618431	-0.00230617	2	-0.000211216	14	0.456429	117.476	-1.42621e-07	-0.394585
2	0	0	1	0	1	73.834	0.0750323	0.0748089	-0.00217078	2	-0.0002118	14	0.456352	117.476	-1.62394e-07	-0.381543
2	0	0	0	0	1	74.094	0.0880323	0.08782	-0.00198575	2	-0.000212343	14	0.456275	117.476	-1.74389e-07	-0.368455
2	0	0	1	0	1	74.354	0.101032	0.100813	-0.00172624	2	-0.000212829	14	0.456146	117.476	-1.74028e-07	-0.355333
2	0	0	0	0	1	74.614	0.114032	0.11381	-0.00135227	2	-0.000213233	14	0.455921	117.476	-1.53901e-07	-0.342111
2	0	0	1	0	1	74.874	0.127032	0.126785	-0.000799701	2	-0.000213517	14	0.455623	117.476	-1.0139e-07	-0.328838
2	0	0	0	0	1	75.134	0.140032	0.139771	-4.56648e-06	2	-0.000213629	14	0.455158	117.476	-6.38259e-10	-0.315387
2	1	0	1	0	1	75.394	0.153032	0.152787	0.00109819	2	-0.000213495	14	0.454506	117.476	1.67788e-07	-0.301719
2	1	0	0	0	1	75.654	0.166032	0.165826	0.00258961	2	-0.000213026	14	0.453602	117.476	4.29426e-07	-0.287775
2	1	0	1	0	1	75.914	0.179032	0.178805	0.00440514	2	-0.000212126	14	0.452471	117.476	7.87662e-07	-0.273666
2	1	0	0	0	1	76.174	0.192032	0.191815	0.0064156	2	-0.000210721	14	0.451138	117.476	1.23061e-06	-0.259324
2	1	0	1	0	1	76.434	0.205032	0.204793	0.00839945	2	-0.000208787	14	0.449743	117.476	1.72015e-06	-0.244951
2	1	0	1	0	1	76.6942	0.218042	0.2178	0.0100729	2	-0.000206368	14	0.448434	117.476	2.19387e-06	-0.230634
2	1	0	1	0	1	76.9852	0.232592	0.232335	0.0112666	2	-0.000203233	13	0.447282	117.476	2.61763e-06	-0.214947
2	1	0	1	0	1	77.2462	0.245642	0.245399	0.0117157	2	-0.000200209	13	0.44657	117.476	2.87501e-06	-0.201171
2	1	0	1	0	1	77.517	0.259178	0.258916	0.0116211	2	-0.000197027	13	0.446156	117.476	3.00887e-06	-0.18724
2	1	0	1	0	1	77.7894	0.272796	0.272544	0.0111476	2	-0.000193907	13	0.446004	117.476	3.03821e-06	-0.17346
2	1	0	1	0	1	78.0633	0.286492	0.286244	0.0104675	2	-0.000190934	13	0.446007	117.476	2.99625e-06	-0.159763
2	1	0	1	0	1	78.3376	0.300205	0.299938	0.00972248	2	-0.000188153	13	0.446122	117.476	2.91614e-06	-0.146184
2	1	0	1	0	1	78.6108	0.313868	0.31362	0.00900077	2	-0.000185586	13	0.446294	117.476	2.82282e-06	-0.132674
2	1	0	1	0	1	78.8855	0.327602	0.327335	0.00833165	2	-0.000183196	13	0.446472	117.476	2.72724e-06	-0.119137
2	1	0	1	0	1	79.161	0.341375	0.341118	0.00773617	2	-0.000180973	13	0.446625	117.476	2.63895e-06	-0.105507
2	1	0	1	0	1	79.4371	0.355182	0.354923	0.00720642	2	-0.0001789	13	0.446775	117.476	2.55772e-06	-0.0918523
2	1	0	1	0	1	79.7137	0.369012	0.368767	0.00674929	2	-0.00017696	13	0.446925	117.476	2.48892e-06	-0.0781584
2	1	0	1	0	1	79.9904	0.382844	0.382555	0.00634332	2	-0.000175139	13	0.44706	117.476	2.42667e-06	-0.064505
2	1	0	1	0	1	80.2692	0.396785	0.396549	0.0059882	2	-0.000173409	13	0.447152	117.476	2.37462e-06	-0.0506026
2	1	0	1	0	1	80.5489	0.410768	0.410533	0.00567316	2	-0.000171767	13	0.447257	117.476	2.32902e-06	-0.0367243
2	1	0	1	0	1	80.8343	0.425037	0.42478	0.0053855	2	-0.000170177	13	0.447325	117.476	2.28765e-06	-0.022545
2	1	0	1	0	1	81.1195	0.439297	0.439054	0.00512768	2	-0.000168666	13	0.447379	117.476	2.25133e-06	-0.00832528
2	1	0	1	0	1	81.4048	0.453563	0.453365	0.00489399	2	-0.000167225	13	0.447446	117.476	2.21877e-06	0.00591922
2	1	0	1	0	1	81.6866	0.467652	0.467399	0.00468134	2	-0.000165863	13	0.447499	117.476	2.18805e-06	0.0198997
2	1	0	1	0	1	81.9681	0.481729	0.481461	0.00449104	2	-0.000164561	13	0.447552	117.476	2.16226e-06	0.0339086
2	1	0	1	0	1	82.2804	0.497342	0.497126	0.004349	2	-0.000163175	14	0.447557	117.476	2.162e-06	0.0495698
2	1	0	1	0	1	82.5512	0.510882	0.510682	0.00419464	2	-0.000162021	14	0.447597	117.476	2.14213e-06	0.0630853
2	1	0	1	0	1	82.814	0.524022	0.523795	0.00405476	2	-0.000160939	14	0.447628	117.476	2.12386e-06	0.0761676
2	1	0	1	0	1	83.0809	0.537368	0.537165	0.00392751	2	-0.000159876	14	0.44765	117.476	2.10972e-06	0.0895152
2	1	0	1	0	1	83.349	0.550773	0.550561	0.00381013	2	-0.00015884	14	0.447662	117.476	2.09771e-06	0.102899
2	1	0	1	0	1	83.6157	0.564108	0.563897	0.00370438	2	-0.000157839	14	0.447664	117.476	2.08889e-06	0.116232
2	1	0	1	0	1	83.8817	0.577408	0.577189	0.00361041	2	-0.000156868	14	0.447682	117.476	2.08389e-06	0.129508
2	1	0	1	0	1	84.1456	0.590603	0.590368	0.00352461	2	-0.000155928	14	0.447675	117.476	2.08082e-06	0.142693
2	1	0	1	0	0	84.3656	0.598382	0.598092	0.00326055	2	-0.000155167	14	0.44776	117.476	1.95011e-06	0.150331
2	1	0	0	0	0	84.6256	0.585382	0.585148	0.00306257	2	-0.000154346	14	0.447836	117.476	1.79206e-06	0.137312
2	1	0	1	0	0	84.8856	0.572382	0.572091	0.00293443	2	-0.000153566	14	0.447895	117.476	1.67876e-06	0.124197
2	1	0	0	0	0	85.1456	0.559382	0.559137	0.00282616	2	-0.000152815	14	0.447919	117.476	1.58021e-06	0.111219
2	1	0	1	0	0	85.4056	0.546382	0.546129	0.00273066	2	-0.000152091	14	0.447944	117.476	1.49129e-06	0.0981848
2	1	0	0	0	0	85.6656	0.533382	0.533122	0.00264487	2	-0.000151391	14	0.447969	117.476	1.41004e-06	0.0851526
2	1	0	1	0	0	85.9256	0.520382	0.520103	0.0025616	2	-0.000150713	14	0.447985	117.476	1.33229e-06	0.0721183
2	1	0	0	0	0	86.1856	0.507382	0.50708	0.00248654	2	-0.000150054	14	0.448015	117.476	1.26088e-06	0.0590651
2	1	0	1	0	0	86.4456	0.494382	0.494089	0.00241284	2	-0.000149416	14	0.448028	117.476	1.19216e-06	0.0460619
2	1	0	0	0	0	86.7056	0.481382	0.481087	0.00234337	2	-0.000148795	14	0.448045	117.476	1.12736e-06	0.0330418
2	1	0	1	0	0	86.9656	0.468382	0.468115	0.00227552	2	-0.000148193	14	0.448039	117.476	1.06521e-06	0.020076
2	1	0	0	0	0	87.2256	0.455382	0.455073	0.0022081	2	-0.000147609	14	0.448059	117.476	1.00485e-06	0.00701383
2	1	0	1	0	0	87.4616	0.443582	0.443342	0.00214834	3	-0.000147093	14	0.448074	117.476	9.5245e-07	-0.00473198
2	1	0	0	0	0	87.7216	0.430582	0.430321	0.00208296	3	-0.000146541	14	0.448086	117.476	8.9634e-07	-0.017765
2	1	0	1	0	0	87.9816	0.417582	0.417308	0.00201744	3	-0.000146006	14	0.448098	117.476	8.41894e-07	-0.0307904
2	1	0	0	0	0	88.2416	0.404582	0.404279	0.0019548	3	-0.000145488	14	0.448127	117.476	7.90285e-07	-0.0438475
2	1	0	1	0	0	88.5016	0.391582	0.391304	0.00189083	3	-0.000144986	14	0.448132	117.476	7.3989e-07	-0.0568285
2	1	0	0	0	0	88.7616	0.378582	0.378295	0.00182413	3	-0.000144501	14	0.448147	117.476	6.90059e-07	-0.0698514
2	1	0	1	0	0	89.0216	0.365582	0.3653	0.0017494	3	-0.000144035	14	0.448158	117.476	6.39055e-07	-0.0828584
2	1	0	1	0	0	89.2818	0.352572	0.352292	0.00166148	3	-0.000143589	14	0.448199	117.476	5.85326e-07	-0.0959076
2	1	0	0	0	0	89.5418	0.339572	0.339283	0.00155247	3	-0.000143169	14	0.448238	117.476	5.26726e-07	-0.108955
2	1	0	1	0	0	89.8018	0.326572	0.326303	0.001407	3	-0.000142782	14	0.448317	117.476	4.59108e-07	-0.122014
2	1	0	0	0	0	90.0618	0.313572	0.313288	0.00120103	3	-0.000142439	14	0.448409	117.476	3.76267e-07	-0.135121
2	1	0	1	0	0	90.3218	0.300572	0.30029	0.000902854	3	-0.000142162	14	0.448564	117.476	2.71118e-07	-0.148273
2	1	0	0	0	0	90.5818	0.287572	0.287299	0.000457945	3	-0.000141981	14	0.448812	117.476	1.31567e-07	-0.161513
2	0	0	1	0	0	90.8418	0.274572	0.274287	-0.000205542	3	-0.00014194	14	0.449184	117.476	-5.63773e-08	-0.174898
2	0	0	0	0	0	91.1018	0.261572	0.2613	-0.00116963	3	-0.000142107	14	0.44974	117.476	-3.05625e-07	-0.188441
2	0	0	1	0	0	91.3618	0.248572	0.248315	-0.00248385	3	-0.000142571	14	0.450531	117.476	-6.16777e-07	-0.202216
2	0	0	0	0	0	91.6218	0.235572	0.235371	-0.00425828	3	-0.00014344	14	0.451621	117.476	-1.00228e-06	-0.216249
2	0	0	1	0	0	91.8818	0.222572	0.222309	-0.00644779	3	-0.000144822	14	0.452989	117.476	-1.4334e-06	-0.23068
2	0	0	0	0	0	92.1418	0.209572	0.20932	-0.00870946	3	-0.000146792	14	0.454536	117.476	-1.82307e-06	-0.245216
2	0	0	1	0	0	92.4018	0.196572	0.196293	-0.0108508	3	-0.000149343	14	0.456082	117.476	-2.12994e-06	-0.259789
2	0	0	0	0	0	92.6918	0.182072	0.181793	-0.0124413	3	-0.000152739	13	0.457477	117.476	-2.26175e-06	-0.275684
2	0	0	1	0	0	92.9518	0.169072	0.168793	-0.0130535	3	-0.000156079	13	0.458336	117.476	-2.20334e-06	-0.289543
2	0	0	0	0	0	93.2118	0.156072	0.155888	-0.0130048	3	-0.000159489	13	0.458777	117.476	-2.02729e-06	-0.302888
2	0	0	1	0	0	93.4719	0.143069	0.142792	-0.0125106	3	-0.000162825	13	0.458975	117.476	-1.78642e-06	-0.316183
2	0	0	1	0	0	93.7336	0.129982	0.129721	-0.0117968	3	-0.000166017	13	0.458933	117.476	-1.53029e-06	-0.329212
2	0	0	1	0	0	93.9955	0.116889	0.116666	-0.0110482	3	-0.000169018	13	0.458811	117.476	-1.28895e-06	-0.342145
2	0	0	1	0	0	94.2572	0.103802	0.103586	-0.010357	3	-0.000171829	13	0.458691	117.476	-1.07285e-06	-0.355105
2	0	0	1	0	0	94.5187	0.0907286	0.0905032	-0.00975981	3	-0.000174469	13	0.458576	117.476	-8.83295e-07	-0.368072
2	0	0	1	0	0	94.78	0.0776624	0.077433	-0.00925023	3	-0.000176962	13	0.458453	117.476	-7.16273e-07	-0.38102
2	0	0	0	0	0	95.0412	0.0646025	0.0643435	-0.00881544	3	-0.000179331	13	0.45838	117.476	-5.67217e-07	-0.394036
2	0	0	0	0	0	95.3022	0.0515525	0.0512884	-0.00844778	3	-0.000181594	13	0.458287	117.476	-4.33273e-07	-0.406998
2	0	0	1	0	0	95.563	0.0385125	0.038289	-0.00812636	3	-0.000183766	13	0.458245	117.476	-3.1115e-07	-0.419956
2	0	0	0	0	0	95.8238	0.0254725	0.0251951	-0.00784518	3	-0.00018586	13	0.458211	117.476	-1.9766e-07	-0.433016
2	0	0	0	0	0	96.0844	0.0124425	0.0121781	-0.007594	3	-0.000187883	13	0.458196	117.476	-9.24802e-08	-0.446018
2	0	0	1	0	0	96.3451	-0.000591378	-0.000925213	-0.00736718	3	-0.000189845	13	0.458168	117.476	6.81621e-09	-0.459093
2	0	0	0	0	0	96.6056	-0.0136175	-0.0139472	-0.00715858	3	-0.000191748	13	0.458146	117.476	9.98423e-08	-0.472093
2	0	0	0	0	0	96.8662	-0.0266475	-0.0269399	-0.00696151	3	-0.0001936	13	0.458141	117.476	1.87543e-07	-0.485081
2	0	0	0	0	0	97.1268	-0.0396775	-0.0400132	-0.00677632	3	-0.000195401	13	0.45813	117.476	2.71142e-07	-0.498143
2	0	0	1	0	0	97.3872	-0.0526975	-0.0530298	-0.00660411	3	-0.000197155	13	0.45812	117.476	3.50214e-07	-0.51115
2	0	0	1	0	0	97.6478	-0.0657275	-0.0660447	-0.00644173	3	-0.000198866	13	0.45812	117.476	4.25442e-07	-0.524164
2	0	0	0	0	0	97.9082	-0.0787475	-0.0790486	-0.00628618	3	-0.000200535	13	0.458116	117.476	4.96914e-07	-0.537164
2	0	0	1	0	0	98.1686	-0.0917675	-0.0920927	-0.00614098	3	-0.000202165	13	0.458108	117.476	5.6554e-07	-0.550201
2	0	0	1	0	0	98.4291	-0.104791	-0.105118	-0.00600042	3	-0.000203758	13	0.458106	117.476	6.30754e-07	-0.563224
2	0	0	0	0	0	98.6896	-0.117818	-0.118153	-0.00587214	3	-0.000205317	13	0.458109	117.476	6.9381e-07	-0.576261
2	0	0	0	0	0	98.9498	-0.130828	-0.131112	-0.00575143	3	-0.00020684	13	0.458113	117.476	7.54081e-07	-0.589225
2	0	0	1	0	0	99.2102	-0.143848	-0.14419	-0.00563187	3	-0.000208334	13	0.458112	117.476	8.12059e-07	-0.602302
2	0	0	0	0	0	99.4706	-0.156868	-0.157176	-0.00552044	3	-0.000209798	13	0.458124	117.476	8.6768e-07	-0.6153
2	0	0	1	0	0	99.731	-0.169888	-0.17019	-0.00541808	3	-0.000211234	13	0.458137	117.476	9.22104e-07	-0.628327
2	0	0	1	0	0	99.9913	-0.182901	-0.183216	-0.00531883	3	-0.000212644	13	0.458144	117.476	9.74496e-07	-0.64136
2	0	0	0	0	0	100.252	-0.195918	-0.196205	-0.00523021	3	-0.000214029	13	0.458177	117.476	1.02619e-06	-0.654382
2	0	0	1	0	0	100.512	-0.208938	-0.209225	-0.00514136	3	-0.000215391	13	0.458176	117.476	1.0757e-06	-0.667401
2	0	0	1	0	0	100.772	-0.221948	-0.222269	-0.00506004	3	-0.00021673	13	0.458185	117.476	1.12469e-06	-0.680455
2	0	0	1	0	0	101.032	-0.234958	-0.235236	-0.0049838	3	-0.000218049	13	0.458198	117.476	1.17237e-06	-0.693434
2	0	0	0	0	0	101.293	-0.247978	-0.248246	-0.00491222	3	-0.000219349	13	0.45822	117.476	1.21944e-06	-0.706466
2	0	0	0	0	0	101.553	-0.260988	-0.26129	-0.00484606	3	-0.000220631	13	0.458249	117.476	1.26623e-06	-0.719539
2	0	0	0	0	0	101.813	-0.273998	-0.274298	-0.00478475	3	-0.000221896	13	0.458266	117.476	1.31245e-06	-0.732565
2	0	0	0	0	0	102.073	-0.287008	-0.287299	-0.00472333	3	-0.000223145	13	0.458289	117.476	1.35701e-06	-0.745588
2	0	0	1	0	0	102.334	-0.300028	-0.300286	-0.00467102	3	-0.00022438	13	0.458325	117.476	1.40264e-06	-0.758611
2	0	0	1	0	0	102.594	-0.313038	-0.313323	-0.00462245	3	-0.000225601	13	0.458353	117.476	1.44832e-06	-0.771676
2	0	0	1	0	0	102.854	-0.326048	-0.326389	-0.00457335	3	-0.00022681	13	0.458375	117.476	1.49269e-06	-0.784764
2	0	0	1	0	0	103.114	-0.339058	-0.339374	-0.00453339	3	-0.000228007	13	0.458409	117.476	1.53852e-06	-0.797784
2	0	0	1	0	0	103.375	-0.352068	-0.352355	-0.0044929	3	-0.000229193	13	0.458446	117.476	1.5831e-06	-0.810802
2	0	0	1	0	0	103.635	-0.365078	-0.365358	-0.0044583	3	-0.00023037	13	0.458461	117.476	1.62888e-06	-0.823819
2	0	0	0	0	0	103.925	-0.379578	-0.379873	-0.00447593	3	-0.000231671	14	0.458546	117.476	1.70029e-06	-0.83842
2	0	0	0	0	0	104.185	-0.392588	-0.392889	-0.0044451	3	-0.00023283	14	0.458567	117.476	1.74643e-06	-0.851457
2	0	0	1	0	0	104.424	-0.395488	-0.395771	-0.00417828	3	-0.00023387	14	0.458493	117.476	1.65364e-06	-0.854265
2	0	0	0	0	0	104.684	-0.382488	-0.382737	-0.00403753	3	-0.000234937	14	0.458466	117.476	1.54531e-06	-0.841203
2	0	0	1	0	0	104.944	-0.369488	-0.369785	-0.00394041	3	-0.000235975	14	0.458431	117.476	1.4571e-06	-0.828216
2	0	0	0	0	0	105.204	-0.356488	-0.356734	-0.00386013	3	-0.000236991	14	0.458425	117.476	1.37704e-06	-0.815158
2	0	0	1	0	0	105.464	-0.343488	-0.343732	-0.00378857	3	-0.000237987	14	0.458414	117.476	1.30225e-06	-0.802146
2	0	0	0	0	0	105.724	-0.330488	-0.330714	-0.00372539	3	-0.000238965	14	0.458409	117.476	1.23204e-06	-0.789123
2	0	0	1	0	0	105.984	-0.317488	-0.317731	-0.00366664	3	-0.000239928	14	0.458423	117.476	1.16501e-06	-0.776154
2	0	0	0	0	0	106.244	-0.304488	-0.304705	-0.00361285	3	-0.000240876	14	0.458441	117.476	1.10085e-06	-0.763146
2	0	0	1	0	0	106.504	-0.291488	-0.291729	-0.00356062	3	-0.00024181	14	0.458421	117.476	1.03874e-06	-0.750151
2	0	0	0	0	0	106.764	-0.278488	-0.278738	-0.00351191	3	-0.000242731	14	0.458444	117.476	9.78903e-07	-0.737182
2	0	0	1	0	0	107.024	-0.265488	-0.265756	-0.00346521	3	-0.000243639	14	0.45846	117.476	9.209e-07	-0.724217
2	0	0	0	0	0	107.284	-0.252488	-0.252762	-0.00341875	3	-0.000244536	14	0.458459	117.476	8.6413e-07	-0.711221
2	0	0	1	0	0	107.544	-0.239488	-0.239792	-0.00337388	3	-0.00024542	14	0.458458	117.476	8.09028e-07	-0.698249
2	0	0	0	0	0	107.804	-0.226488	-0.226757	-0.00333142	3	-0.000246294	14	0.458486	117.476	7.55424e-07	-0.685243
2	0	0	1	0	0	108.064	-0.213488	-0.213743	-0.00328926	3	-0.000247156	14	0.458479	117.476	7.03057e-07	-0.672222
2	0	0	0	0	0	108.324	-0.200488	-0.200737	-0.00324841	3	-0.000248007	14	0.458497	117.476	6.52077e-07	-0.659234
2	0	0	1	0	0	108.584	-0.187488	-0.187731	-0.00320819	3	-0.000248848	14	0.458504	117.476	6.02278e-07	-0.646235
2	0	0	0	0	0	108.844	-0.174488	-0.174745	-0.00316726	3	-0.000249678	14	0.45852	117.476	5.53464e-07	-0.633265
2	0	0	1	0	0	109.104	-0.161488	-0.161757	-0.00312702	3	-0.000250498	14	0.458527	117.476	5.05818e-07	-0.620284
2	0	0	0	0	0	109.364	-0.148488	-0.148773	-0.00308614	3	-0.000251307	14	0.458541	117.476	4.59135e-07	-0.607315
2	0	0	1	0	0	109.624	-0.135488	-0.135773	-0.00304416	3	-0.000252106	14	0.458529	117.476	4.13316e-07	-0.594302
2	0	0	0	0	0	109.884	-0.122488	-0.12279	-0.00300271	3	-0.000252894	14	0.458537	117.476	3.68702e-07	-0.581326
2	0	0	1	0	0	110.144	-0.109488	-0.109799	-0.00296119	3	-0.000253671	14	0.458549	117.476	3.25136e-07	-0.568348
2	0	0	0	0	0	110.404	-0.0964877	-0.0967836	-0.00291777	3	-0.000254436	14	0.458557	117.476	2.82393e-07	-0.55534
2	0	0	1	0	0	110.664	-0.0834877	-0.0837393	-0.00287427	3	-0.000255191	14	0.458561	117.476	2.40689e-07	-0.542301
2	0	0	0	0	0	110.924	-0.0704877	-0.0707575	-0.00282862	3	-0.000255934	14	0.458546	117.476	2.00146e-07	-0.529303
2	0	0	1	0	0	111.184	-0.0574877	-0.057815	-0.00278312	3	-0.000256665	14	0.458556	117.476	1.60906e-07	-0.516371
2	0	0	0	0	0	111.444	-0.0444877	-0.0447951	-0.00273464	3	-0.000257384	14	0.458572	117.476	1.22498e-07	-0.503367
2	0	0	1	0	0	111.704	-0.0314877	-0.0317582	-0.00268487	3	-0.00025809	14	0.458525	117.476	8.52667e-08	-0.490283
2	0	0	0	0	0	111.964	-0.0184877	-0.0187436	-0.00263448	3	-0.000258783	14	0.458529	117.476	4.93796e-08	-0.477273
2	0	0	1	0	0	112.224	-0.00548768	-0.00576499	-0.00258106	3	-0.000259462	14	0.458535	117.476	1.48798e-08	-0.4643
2	0	0	0	0	0	112.484	0.00751232	0.00729204	-0.00252402	3	-0.000260127	14	0.458527	117.476	-1.84053e-08	-0.451235
2	0	0	1	0	0	112.744	0.0205123	0.0202992	-0.00246337	3	-0.000260777	14	0.458506	117.476	-5.00046e-08	-0.438207
2	0	0	0	0	0	113.004	0.0335123	0.0333372	-0.00239541	3	-0.00026141	14	0.458479	117.476	-7.98562e-08	-0.425142
2	0	0	1	0	0	113.264	0.0465123	0.0462935	-0.00231642	3	-0.000262024	14	0.458463	117.476	-1.07235e-07	-0.412169
2	0	0	0	0	0	113.524	0.0595123	0.0592933	-0.00221852	3	-0.000262616	14	0.458411	117.476	-1.31544e-07	-0.399117
2	0	0	1	0	0	113.784	0.0725123	0.0723206	-0.00209328	3	-0.000263179	14	0.458357	117.476	-1.51387e-07	-0.386037
2	0	0	0	0	0	114.044	0.0855123	0.0853363	-0.00192373	3	-0.000263703	14	0.458287	117.476	-1.64164e-07	-0.37295
2	0	0	1	0	0	114.304	0.0985123	0.0982763	-0.00168027	3	-0.000264175	14	0.458166	117.476	-1.6513e-07	-0.359889
2	0	0	0	0	0	114.564	0.111512	0.111279	-0.00133528	3	-0.000264571	14	0.457981	117.476	-1.48589e-07	-0.346701
2	0	0	1	0	0	114.824	0.124512	0.124295	-0.00082061	3	-0.000264857	14	0.457671	117.476	-1.01997e-07	-0.333376
2	0	0	0	0	0	115.084	0.137512	0.137306	-9.35174e-05	3	-0.000264982	14	0.457268	117.476	-1.28405e-08	-0.319962
2	1	0	1	0	0	115.344	0.150512	0.150297	0.0009714	3	-0.000264876	14	0.456643	117.476	1.45998e-07	-0.306347
2	1	0	0	0	0	115.604	0.163512	0.16323	0.00235533	3	-0.000264452	14	0.455796	117.476	3.84461e-07	-0.292565
2	1	0	1	0	0	115.864	0.176512	0.176291	0.00412015	3	-0.000263614	14	0.454664	117.476	7.26343e-07	-0.278374
2	1	0	0	0	0	116.124	0.189512	0.189275	0.00617505	3	-0.00026228	14	0.453327	117.476	1.16878e-06	-0.264052
2	1	0	1	0	0	116.384	0.202512	0.202257	0.00819993	3	-0.00026041	14	0.451915	117.476	1.65849e-06	-0.249658
2	1	0	1	0	0	116.644	0.215516	0.215303	0.0099678	3	-0.000258039	14	0.450541	117.476	2.14609e-06	-0.235238
2	1	0	1	0	0	116.935	0.230086	0.229854	0.0112809	3	-0.000254918	13	0.449331	117.476	2.59296e-06	-0.219477
2	1	0	1	0	0	117.196	0.243102	0.242841	0.0118494	3	-0.00025188	13	0.448532	117.476	2.87751e-06	-0.205692
2	1	0	1	0	0	117.465	0.256571	0.256324	0.011865	3	-0.000248663	13	0.448032	117.476	3.04128e-06	-0.191708
2	1	0	1	0	0	117.737	0.270172	0.269972	0.0114376	3	-0.000245477	13	0.447858	117.476	3.08784e-06	-0.177886
2	1	0	1	0	0	118.01	0.283839	0.283523	0.0107806	3	-0.000242426	13	0.447851	117.476	3.05655e-06	-0.164328
2	1	0	1	0	0	118.283	0.29748	0.297171	0.0100377	3	-0.000239574	13	0.447953	117.476	2.98293e-06	-0.150782
2	1	0	1	0	0	118.557	0.311147	0.310875	0.0093017	3	-0.000236921	13	0.448114	117.476	2.89167e-06	-0.137239
2	1	0	1	0	0	118.831	0.324877	0.324578	0.00861957	3	-0.000234451	13	0.44831	117.476	2.79773e-06	-0.123732
2	1	0	1	0	0	119.106	0.338622	0.338369	0.0079965	3	-0.000232158	13	0.448479	117.476	2.70577e-06	-0.110111
2	1	0	1	0	0	119.381	0.35237	0.35211	0.0074568	3	-0.000230023	13	0.448655	117.476	2.62562e-06	-0.096545
2	1	0	1	0	0	119.658	0.366236	0.365966	0.00698162	3	-0.000228011	13	0.448782	117.476	2.55503e-06	-0.0828162
2	1	0	1	0	0	119.935	0.380081	0.379828	0.00656578	3	-0.000226125	13	0.448921	117.476	2.49387e-06	-0.0690931
2	1	0	1	0	0	120.213	0.393975	0.393757	0.00619787	3	-0.00022434	13	0.449039	117.476	2.44046e-06	-0.0552814
2	1	0	1	0	0	120.493	0.407959	0.407682	0.00587279	3	-0.000222641	13	0.44912	117.476	2.39423e-06	-0.0414376
2	1	0	1	0	0	120.777	0.422183	0.421902	0.0055804	3	-0.000221001	13	0.449201	117.476	2.35438e-06	-0.0272992
2	1	0	1	0	0	121.063	0.436447	0.436198	0.00531557	3	-0.000219434	13	0.449275	117.476	2.31864e-06	-0.0130769
2	1	0	1	0	0	121.348	0.450707	0.450465	0.0050737	3	-0.000217941	13	0.44933	117.476	2.28552e-06	0.00113446
2	1	0	1	0	0	121.631	0.464867	0.464575	0.00485726	3	-0.000216523	13	0.449399	117.476	2.25656e-06	0.0151762
2	1	0	1	0	0	121.913	0.478968	0.478685	0.00465826	3	-0.000215168	13	0.449465	117.476	2.22984e-06	0.0292207
2	1	0	1	0	0	122.192	0.492932	0.492668	0.00448279	3	-0.00021388	13	0.449482	117.476	2.20853e-06	0.0431868
2	1	0	1	0	0	122.495	0.508078	0.507845	0.00435734	3	-0.000212536	14	0.449492	117.476	2.21285e-06	0.0583524
2	1	0	1	0	0	122.763	0.521463	0.521246	0.0042168	3	-0.000211391	14	0.449528	117.476	2.19799e-06	0.0717179
2	1	0	1	0	0	123.032	0.534917	0.534692	0.00407888	3	-0.000210277	14	0.449572	117.476	2.18094e-06	0.0851201
2	1	0	1	0	0	123.301	0.548348	0.54813	0.00395997	3	-0.000209199	14	0.449568	117.476	2.17058e-06	0.098562
2	1	0	1	0	0	123.567	0.561657	0.561448	0.00385228	3	-0.000208161	14	0.449572	117.476	2.16285e-06	0.111876
2	1	0	1	0	0	123.835	0.575072	0.574858	0.00375144	3	-0.000207143	14	0.449602	117.476	2.15654e-06	0.125256
2	1	0	1	0	0	124.101	0.588382	0.588192	0.00366363	3	-0.000206157	14	0.449582	117.476	2.15492e-06	0.13861
2	1	0	0	0	1	124.335	0.599933	0.599682	0.00358273	3	-0.000205311	14	0.449598	117.476	2.1485e-06	0.150083
2	1	0	0	0	1	124.586	0.587382	0.587137	0.00320901	3	-0.000204481	14	0.44975	117.476	1.88412e-06	0.137387
2	1	0	1	0	1	124.846	0.574382	0.574168	0.00307463	3	-0.000203663	14	0.44979	117.476	1.76535e-06	0.124378
2	1	0	0	0	1	125.106	0.561382	0.561113	0.00296339	3	-0.000202877	14	0.449829	117.476	1.66279e-06	0.111283
2	1	0	1	0	1	125.366	0.548382	0.548112	0.0028666	3	-0.000202117	14	0.449857	117.476	1.57122e-06	0.0982547
2	1	0	0	0	1	125.626	0.535382	0.535111	0.00277795	3	-0.000201382	14	0.449867	117.476	1.48651e-06	0.0852438
2	1	0	1	0	1	125.886	0.522382	0.522119	0.00269562	3	-0.000200669	14	0.449895	117.476	1.40743e-06	0.0722231
2	1	0	0	0	1	126.146	0.509382	0.50913	0.00261749	3	-0.000199977	14	0.449909	117.476	1.33265e-06	0.0592217
2	1	0	1	0	1	126.406	0.496382	0.496115	0.00254271	3	-0.000199304	14	0.449922	117.476	1.26148e-06	0.0461933
2	1	0	0	0	1	126.666	0.483382	0.483066	0.00247199	3	-0.00019865	14	0.449921	117.476	1.19413e-06	0.0331454
2	1	0	1	0	1	126.926	0.470382	0.470094	0.00240256	3	-0.000198015	14	0.449943	117.476	1.12943e-06	0.0201507
2	1	0	0	0	1	127.186	0.457382	0.457139	0.00233551	3	-0.000197397	14	0.449956	117.476	1.06765e-06	0.00718266
2	1	0	1	0	1	127.288	0.452232	0.451841	0.00226521	3	-0.000197159	14	0.449897	117.476	1.02351e-06	0.00194362